timestamp,accel_x,accel_y,accel_z,gyro_x,gyro_y,gyro_z,heel_deg,pitch_deg,speed_knots,latitude,longitude,calculated_wave_height_m
2026-06-21 22:00:00.042,-0.008,-0.007,0.989,-39.5,5.8,5.4,0.2,-0.2,0.2,57.89481770,11.95061000,0.11
2026-06-21 22:00:00.086,-0.008,-0.007,0.989,-39.6,5.8,5.4,0.2,-0.2,0.1,57.89481770,11.95061000,0.11
2026-06-21 22:00:00.119,-0.008,-0.007,0.989,-39.6,5.8,5.5,0.2,-0.2,0.2,57.89481780,11.95061000,0.11
2026-06-21 22:00:00.161,-0.008,-0.007,0.989,-39.7,5.8,5.5,0.2,-0.2,0.1,57.89481770,11.95061010,0.11
2026-06-21 22:00:00.190,-0.008,-0.007,0.989,-39.7,5.8,5.4,0.2,-0.2,0.1,57.89481760,11.95061020,0.11
2026-06-21 22:00:00.236,-0.008,-0.007,0.988,-39.8,5.9,5.5,0.2,-0.2,0.4,57.89481770,11.95060990,0.11
2026-06-21 22:00:00.281,-0.008,-0.007,0.988,-39.8,5.8,5.5,0.2,-0.2,0.1,57.89481770,11.95061000,0.11
2026-06-21 22:00:00.326,-0.008,-0.007,0.988,-39.7,5.8,5.4,0.2,-0.2,0.1,57.89481760,11.95061000,0.11
2026-06-21 22:00:00.356,-0.008,-0.007,0.988,-39.6,5.6,5.5,0.2,-0.2,0.1,57.89481760,11.95061010,0.11
2026-06-21 22:00:00.401,-0.008,-0.007,0.988,-39.5,5.6,5.4,0.2,-0.2,0.0,57.89481760,11.95061010,0.11
2026-06-21 22:00:00.447,-0.008,-0.007,0.989,-39.5,5.7,5.3,0.2,-0.2,0.1,57.89481750,11.95061010,0.11
2026-06-21 22:00:00.478,-0.008,-0.007,0.989,-39.5,5.7,5.3,0.2,-0.2,0.1,57.89481750,11.95061000,0.11
2026-06-21 22:00:00.521,-0.008,-0.007,0.989,-39.5,5.7,5.4,0.2,-0.2,0.2,57.89481760,11.95060990,0.11
2026-06-21 22:00:00.566,-0.007,-0.007,0.989,-39.7,5.8,5.4,0.2,-0.3,0.1,57.89481750,11.95061010,0.11
2026-06-21 22:00:00.596,-0.008,-0.007,0.988,-39.6,5.7,5.5,0.2,-0.2,0.2,57.89481750,11.95061020,0.11
2026-06-21 22:00:00.641,-0.008,-0.007,0.988,-39.6,5.7,5.4,0.2,-0.2,0.1,57.89481740,11.95061030,0.11
2026-06-21 22:00:00.672,-0.008,-0.007,0.988,-39.6,5.6,5.4,0.2,-0.2,0.1,57.89481740,11.95061020,0.11
2026-06-21 22:00:00.716,-0.008,-0.007,0.989,-39.6,5.6,5.4,0.2,-0.2,0.1,57.89481740,11.95061030,0.11
2026-06-21 22:00:00.762,-0.008,-0.007,0.989,-39.6,5.7,5.3,0.2,-0.2,0.2,57.89481740,11.95061020,0.11
2026-06-21 22:00:00.806,-0.008,-0.007,0.989,-39.5,5.7,5.3,0.2,-0.2,0.3,57.89481740,11.95061010,0.11
2026-06-21 22:00:00.836,-0.008,-0.007,0.989,-39.5,5.7,5.3,0.2,-0.2,0.1,57.89481740,11.95061010,0.11
2026-06-21 22:00:00.882,-0.007,-0.007,0.989,-39.6,5.7,5.4,0.2,-0.3,0.2,57.89481740,11.95061030,0.11
2026-06-21 22:00:00.926,-0.008,-0.007,0.989,-39.7,5.7,5.4,0.2,-0.2,0.3,57.89481720,11.95061050,0.11
2026-06-21 22:00:00.972,-0.008,-0.007,0.988,-39.7,5.8,5.5,0.2,-0.2,0.2,57.89481710,11.95061060,0.11
2026-06-21 22:00:01.047,-0.008,-0.007,0.989,-39.7,5.8,5.4,0.2,-0.2,0.0,57.89481720,11.95061060,0.11
2026-06-21 22:00:01.092,-0.008,-0.007,0.989,-39.8,5.7,5.4,0.2,-0.2,0.1,57.89481720,11.95061050,0.11
2026-06-21 22:00:01.121,-0.008,-0.007,0.988,-39.9,5.7,5.4,0.2,-0.2,0.1,57.89481720,11.95061050,0.11
2026-06-21 22:00:01.151,-0.008,-0.007,0.988,-39.8,5.8,5.5,0.2,-0.2,0.1,57.89481720,11.95061060,0.11
2026-06-21 22:00:01.196,-0.008,-0.007,0.988,-39.8,5.6,5.5,0.2,-0.2,0.1,57.89481710,11.95061060,0.11
2026-06-21 22:00:01.241,-0.008,-0.007,0.988,-39.7,5.7,5.5,0.2,-0.2,0.1,57.89481710,11.95061060,0.11
2026-06-21 22:00:01.286,-0.009,-0.007,0.988,-39.7,5.7,5.4,0.2,-0.2,0.1,57.89481700,11.95061060,0.11
2026-06-21 22:00:01.317,-0.008,-0.007,0.989,-39.7,5.8,5.4,0.2,-0.2,0.1,57.89481700,11.95061070,0.11
2026-06-21 22:00:01.361,-0.008,-0.007,0.989,-39.7,5.9,5.4,0.2,-0.2,0.1,57.89481710,11.95061070,0.11
2026-06-21 22:00:01.406,-0.007,-0.007,0.988,-39.7,5.9,5.4,0.2,-0.3,0.2,57.89481710,11.95061070,0.11
2026-06-21 22:00:01.436,-0.006,-0.008,0.988,-39.7,6.0,5.5,0.1,-0.4,0.2,57.89481710,11.95061080,0.11
2026-06-21 22:00:01.481,-0.008,-0.008,0.988,-39.6,6.1,5.5,0.1,-0.2,0.2,57.89481700,11.95061070,0.11
2026-06-21 22:00:01.526,-0.007,-0.007,0.988,-39.7,5.9,5.6,0.2,-0.3,0.2,57.89481700,11.95061070,0.11
2026-06-21 22:00:01.556,-0.008,-0.007,0.988,-39.7,5.8,5.6,0.2,-0.2,0.2,57.89481690,11.95061080,0.11
2026-06-21 22:00:01.601,-0.008,-0.007,0.988,-39.7,5.7,5.5,0.2,-0.2,0.2,57.89481690,11.95061090,0.11
2026-06-21 22:00:01.632,-0.007,-0.007,0.988,-39.8,5.6,5.5,0.2,-0.3,0.2,57.89481700,11.95061100,0.11
2026-06-21 22:00:01.676,-0.008,-0.007,0.988,-39.9,5.6,5.4,0.2,-0.2,0.1,57.89481690,11.95061090,0.11
2026-06-21 22:00:01.722,-0.007,-0.007,0.988,-39.9,5.6,5.4,0.2,-0.3,0.1,57.89481680,11.95061100,0.11
2026-06-21 22:00:01.767,-0.008,-0.007,0.988,-39.9,5.6,5.4,0.2,-0.2,0.2,57.89481680,11.95061100,0.11
2026-06-21 22:00:01.797,-0.008,-0.007,0.988,-39.8,5.6,5.4,0.2,-0.2,0.1,57.89481670,11.95061110,0.11
2026-06-21 22:00:01.843,-0.008,-0.007,0.988,-39.7,5.6,5.3,0.2,-0.2,0.1,57.89481680,11.95061110,0.11
2026-06-21 22:00:01.887,-0.008,-0.008,0.988,-39.6,5.6,5.4,0.1,-0.2,0.1,57.89481680,11.95061120,0.11
2026-06-21 22:00:01.917,-0.008,-0.007,0.989,-39.7,5.7,5.5,0.2,-0.2,0.2,57.89481670,11.95061110,0.11
2026-06-21 22:00:01.976,-0.008,-0.007,0.988,-39.7,5.8,5.6,0.2,-0.2,0.2,57.89481660,11.95061130,0.11
2026-06-21 22:00:02.006,-0.008,-0.007,0.988,-39.8,5.8,5.5,0.2,-0.2,0.2,57.89481670,11.95061120,0.11
2026-06-21 22:00:02.036,-0.008,-0.007,0.989,-39.8,5.8,5.5,0.2,-0.2,0.1,57.89481650,11.95061140,0.11
2026-06-21 22:00:02.081,-0.007,-0.007,0.988,-39.8,5.8,5.5,0.2,-0.3,0.2,57.89481650,11.95061150,0.11
2026-06-21 22:00:02.111,-0.007,-0.007,0.989,-39.7,5.8,5.6,0.2,-0.3,0.0,57.89481650,11.95061150,0.11
2026-06-21 22:00:02.156,-0.007,-0.007,0.988,-39.6,5.9,5.6,0.2,-0.3,0.1,57.89481640,11.95061150,0.11
2026-06-21 22:00:02.202,-0.007,-0.007,0.988,-39.7,5.8,5.6,0.2,-0.3,0.1,57.89481640,11.95061160,0.11
2026-06-21 22:00:02.247,-0.008,-0.007,0.988,-39.6,5.8,5.4,0.2,-0.2,0.1,57.89481630,11.95061170,0.11
2026-06-21 22:00:02.276,-0.008,-0.007,0.988,-39.7,5.7,5.4,0.2,-0.2,0.1,57.89481630,11.95061170,0.11
2026-06-21 22:00:02.321,-0.008,-0.007,0.988,-39.7,5.7,5.4,0.2,-0.2,0.2,57.89481630,11.95061170,0.11
2026-06-21 22:00:02.367,-0.008,-0.007,0.989,-39.6,5.8,5.5,0.2,-0.2,0.1,57.89481630,11.95061170,0.11
2026-06-21 22:00:02.396,-0.007,-0.007,0.989,-39.6,5.7,5.5,0.2,-0.3,0.3,57.89481610,11.95061190,0.11
2026-06-21 22:00:02.441,-0.007,-0.007,0.989,-39.6,5.7,5.4,0.2,-0.3,0.3,57.89481620,11.95061170,0.11
2026-06-21 22:00:02.487,-0.007,-0.007,0.988,-39.6,5.7,5.5,0.2,-0.3,0.3,57.89481610,11.95061170,0.11
2026-06-21 22:00:02.516,-0.007,-0.007,0.988,-39.6,5.7,5.4,0.2,-0.3,0.1,57.89481610,11.95061170,0.11
2026-06-21 22:00:02.561,-0.007,-0.007,0.988,-39.6,5.7,5.4,0.2,-0.3,0.1,57.89481600,11.95061180,0.11
2026-06-21 22:00:02.605,-0.007,-0.007,0.989,-39.5,5.7,5.5,0.2,-0.3,0.0,57.89481600,11.95061190,0.11
2026-06-21 22:00:02.636,-0.007,-0.007,0.989,-39.6,5.7,5.5,0.2,-0.3,0.1,57.89481590,11.95061200,0.11
2026-06-21 22:00:02.681,-0.007,-0.007,0.989,-39.7,5.7,5.5,0.2,-0.3,0.1,57.89481580,11.95061220,0.11
2026-06-21 22:00:02.726,-0.008,-0.007,0.989,-39.7,5.7,5.5,0.2,-0.2,0.1,57.89481590,11.95061220,0.11
2026-06-21 22:00:02.757,-0.008,-0.007,0.988,-39.6,5.6,5.4,0.2,-0.2,0.2,57.89481580,11.95061210,0.11
2026-06-21 22:00:02.802,-0.008,-0.007,0.988,-39.6,5.6,5.4,0.2,-0.2,0.1,57.89481580,11.95061210,0.11
2026-06-21 22:00:02.848,-0.008,-0.007,0.988,-39.6,5.7,5.4,0.2,-0.2,0.1,57.89481570,11.95061220,0.11
2026-06-21 22:00:02.892,-0.008,-0.007,0.989,-39.7,5.7,5.4,0.2,-0.2,0.2,57.89481570,11.95061240,0.11
2026-06-21 22:00:02.939,-0.008,-0.007,0.989,-39.8,5.8,5.4,0.2,-0.2,0.2,57.89481560,11.95061230,0.11
2026-06-21 22:00:02.982,-0.008,-0.007,0.989,-39.7,5.8,5.4,0.2,-0.2,0.1,57.89481550,11.95061230,0.11
2026-06-21 22:00:03.012,-0.008,-0.007,0.989,-39.7,5.8,5.5,0.2,-0.2,0.1,57.89481550,11.95061230,0.11
2026-06-21 22:00:03.044,-0.008,-0.007,0.989,-39.7,5.8,5.5,0.2,-0.2,0.3,57.89481550,11.95061230,0.11
2026-06-21 22:00:03.087,-0.008,-0.007,0.989,-39.7,5.8,5.5,0.2,-0.2,0.2,57.89481550,11.95061230,0.11
2026-06-21 22:00:03.116,-0.008,-0.007,0.989,-39.7,5.8,5.5,0.2,-0.2,0.0,57.89481540,11.95061240,0.11
2026-06-21 22:00:03.162,-0.008,-0.007,0.988,-39.7,5.8,5.5,0.2,-0.2,0.1,57.89481530,11.95061250,0.11
2026-06-21 22:00:03.207,-0.008,-0.007,0.989,-39.7,5.9,5.5,0.2,-0.2,0.2,57.89481520,11.95061270,0.11
2026-06-21 22:00:03.237,-0.008,-0.007,0.989,-39.6,5.8,5.5,0.2,-0.2,0.0,57.89481520,11.95061260,0.11
2026-06-21 22:00:03.284,-0.008,-0.007,0.988,-39.6,5.8,5.4,0.2,-0.2,0.3,57.89481500,11.95061270,0.11
2026-06-21 22:00:03.327,-0.007,-0.007,0.989,-39.5,5.8,5.3,0.2,-0.3,0.0,57.89481500,11.95061270,0.11
2026-06-21 22:00:03.356,-0.008,-0.007,0.989,-39.6,5.9,5.4,0.2,-0.2,0.2,57.89481500,11.95061260,0.11
2026-06-21 22:00:03.401,-0.008,-0.007,0.988,-39.6,5.8,5.4,0.2,-0.2,0.3,57.89481510,11.95061280,0.11
2026-06-21 22:00:03.446,-0.007,-0.008,0.988,-39.7,5.8,5.4,0.1,-0.3,0.1,57.89481490,11.95061280,0.11
2026-06-21 22:00:03.475,-0.008,-0.007,0.989,-39.8,5.7,5.5,0.2,-0.2,0.1,57.89481490,11.95061280,0.11
2026-06-21 22:00:03.521,-0.006,-0.008,0.989,-39.8,5.6,5.4,0.1,-0.4,0.1,57.89481490,11.95061290,0.11
2026-06-21 22:00:03.566,-0.007,-0.007,0.989,-39.8,5.7,5.4,0.2,-0.3,0.1,57.89481480,11.95061300,0.11
2026-06-21 22:00:03.597,-0.008,-0.007,0.989,-39.7,5.7,5.5,0.2,-0.2,0.1,57.89481470,11.95061300,0.11
2026-06-21 22:00:03.640,-0.009,-0.007,0.989,-39.7,5.7,5.4,0.2,-0.2,0.2,57.89481460,11.95061300,0.11
2026-06-21 22:00:03.685,-0.008,-0.007,0.989,-39.6,5.6,5.4,0.2,-0.2,0.0,57.89481460,11.95061300,0.11
2026-06-21 22:00:03.715,-0.008,-0.007,0.989,-39.6,5.6,5.3,0.2,-0.2,0.2,57.89481460,11.95061290,0.11
2026-06-21 22:00:03.761,-0.007,-0.007,0.989,-39.6,5.6,5.3,0.2,-0.3,0.2,57.89481450,11.95061300,0.11
2026-06-21 22:00:03.806,-0.008,-0.007,0.988,-39.5,5.7,5.4,0.2,-0.2,0.2,57.89481440,11.95061320,0.11
2026-06-21 22:00:03.837,-0.008,-0.007,0.988,-39.6,5.7,5.5,0.2,-0.2,0.2,57.89481440,11.95061310,0.11
2026-06-21 22:00:03.881,-0.007,-0.007,0.988,-39.7,5.7,5.4,0.2,-0.3,0.1,57.89481440,11.95061310,0.11
2026-06-21 22:00:03.927,-0.007,-0.007,0.989,-39.7,5.8,5.5,0.2,-0.3,0.1,57.89481430,11.95061320,0.11
2026-06-21 22:00:03.972,-0.008,-0.007,0.989,-39.6,5.8,5.4,0.2,-0.2,0.0,57.89481430,11.95061320,0.11
2026-06-21 22:00:04.002,-0.008,-0.007,0.989,-39.7,5.8,5.4,0.2,-0.2,0.0,57.89481430,11.95061320,0.11
2026-06-21 22:00:04.046,-0.007,-0.007,0.989,-39.7,5.7,5.5,0.2,-0.3,0.2,57.89481430,11.95061310,0.11
2026-06-21 22:00:04.076,-0.008,-0.007,0.989,-39.7,5.6,5.4,0.2,-0.2,0.1,57.89481420,11.95061330,0.11
2026-06-21 22:00:04.121,-0.007,-0.007,0.989,-39.7,5.6,5.5,0.2,-0.3,0.2,57.89481420,11.95061330,0.11
2026-06-21 22:00:04.166,-0.008,-0.007,0.989,-39.7,5.7,5.5,0.2,-0.2,0.0,57.89481420,11.95061330,0.11
2026-06-21 22:00:04.196,-0.008,-0.007,0.989,-39.6,5.8,5.5,0.2,-0.2,0.1,57.89481420,11.95061320,0.11
2026-06-21 22:00:04.243,-0.008,-0.007,0.988,-39.7,5.8,5.5,0.2,-0.2,0.1,57.89481410,11.95061320,0.11
2026-06-21 22:00:04.287,-0.008,-0.007,0.988,-39.6,5.8,5.5,0.2,-0.2,0.1,57.89481410,11.95061330,0.11
2026-06-21 22:00:04.316,-0.008,-0.007,0.988,-39.7,5.7,5.4,0.2,-0.2,0.1,57.89481410,11.95061340,0.11
2026-06-21 22:00:04.361,-0.008,-0.007,0.988,-39.6,5.6,5.3,0.2,-0.2,0.2,57.89481420,11.95061330,0.11
2026-06-21 22:00:04.406,-0.008,-0.007,0.988,-39.7,5.6,5.3,0.2,-0.2,0.2,57.89481410,11.95061320,0.11
2026-06-21 22:00:04.436,-0.008,-0.007,0.988,-39.7,5.6,5.3,0.2,-0.2,0.1,57.89481400,11.95061330,0.11
2026-06-21 22:00:04.481,-0.008,-0.007,0.989,-39.7,5.7,5.4,0.2,-0.2,0.0,57.89481400,11.95061330,0.11
2026-06-21 22:00:04.526,-0.008,-0.007,0.989,-39.6,5.6,5.5,0.2,-0.2,0.1,57.89481410,11.95061330,0.11
2026-06-21 22:00:04.557,-0.008,-0.007,0.989,-39.6,5.6,5.6,0.2,-0.2,0.2,57.89481400,11.95061340,0.11
2026-06-21 22:00:04.601,-0.007,-0.007,0.989,-39.6,5.6,5.6,0.2,-0.3,0.2,57.89481390,11.95061340,0.11
2026-06-21 22:00:04.631,-0.008,-0.007,0.988,-39.7,5.6,5.6,0.2,-0.2,0.2,57.89481380,11.95061340,0.11
2026-06-21 22:00:04.676,-0.007,-0.007,0.989,-39.7,5.6,5.5,0.2,-0.3,0.3,57.89481400,11.95061330,0.11
2026-06-21 22:00:04.721,-0.007,-0.007,0.988,-39.6,5.7,5.3,0.2,-0.3,0.1,57.89481400,11.95061340,0.11
2026-06-21 22:00:04.766,-0.007,-0.007,0.989,-39.6,5.7,5.3,0.2,-0.3,0.0,57.89481390,11.95061340,0.11
2026-06-21 22:00:04.796,-0.007,-0.007,0.989,-39.6,5.8,5.4,0.2,-0.3,0.1,57.89481380,11.95061350,0.11
2026-06-21 22:00:04.841,-0.008,-0.007,0.989,-39.5,5.9,5.4,0.2,-0.2,0.1,57.89481390,11.95061350,0.11
2026-06-21 22:00:04.886,-0.008,-0.007,0.989,-39.6,5.8,5.4,0.2,-0.2,0.1,57.89481380,11.95061350,0.11
2026-06-21 22:00:04.917,-0.008,-0.007,0.989,-39.7,5.9,5.4,0.2,-0.2,0.2,57.89481380,11.95061340,0.11
2026-06-21 22:00:04.976,-0.008,-0.007,0.988,-39.7,5.7,5.4,0.2,-0.2,0.1,57.89481380,11.95061350,0.11
2026-06-21 22:00:05.006,-0.008,-0.007,0.988,-39.7,5.7,5.4,0.2,-0.2,0.3,57.89481370,11.95061360,0.11
2026-06-21 22:00:05.036,-0.008,-0.007,0.988,-39.5,5.5,5.6,0.2,-0.2,0.2,57.89481370,11.95061350,0.11
2026-06-21 22:00:05.081,-0.007,-0.007,0.988,-39.5,5.5,5.6,0.2,-0.3,0.1,57.89481370,11.95061350,0.11
2026-06-21 22:00:05.112,-0.008,-0.007,0.988,-39.6,5.5,5.5,0.2,-0.2,0.1,57.89481360,11.95061350,0.11
2026-06-21 22:00:05.157,-0.007,-0.007,0.989,-39.6,5.6,5.4,0.2,-0.3,0.0,57.89481360,11.95061350,0.11
2026-06-21 22:00:05.201,-0.008,-0.007,0.989,-39.6,5.7,5.3,0.2,-0.2,0.1,57.89481350,11.95061360,0.11
2026-06-21 22:00:05.246,-0.008,-0.007,0.989,-39.6,5.6,5.3,0.2,-0.2,0.1,57.89481350,11.95061350,0.11
2026-06-21 22:00:05.276,-0.008,-0.007,0.988,-39.6,5.7,5.3,0.2,-0.2,0.1,57.89481360,11.95061350,0.11
2026-06-21 22:00:05.321,-0.008,-0.007,0.988,-39.6,5.6,5.4,0.2,-0.2,0.0,57.89481350,11.95061360,0.11
2026-06-21 22:00:05.366,-0.007,-0.007,0.989,-39.7,5.7,5.3,0.2,-0.3,0.3,57.89481350,11.95061380,0.11
2026-06-21 22:00:05.396,-0.008,-0.007,0.989,-39.6,5.8,5.4,0.2,-0.2,0.2,57.89481350,11.95061370,0.11
2026-06-21 22:00:05.456,-0.007,-0.007,0.989,-39.5,5.7,5.4,0.2,-0.3,0.1,57.89481340,11.95061380,0.11
2026-06-21 22:00:05.501,-0.008,-0.007,0.989,-39.6,5.7,5.4,0.2,-0.2,0.1,57.89481330,11.95061380,0.11
2026-06-21 22:00:05.531,-0.008,-0.007,0.989,-39.6,5.7,5.5,0.2,-0.2,0.2,57.89481320,11.95061390,0.11
2026-06-21 22:00:05.576,-0.008,-0.007,0.989,-39.7,5.7,5.5,0.2,-0.2,0.1,57.89481330,11.95061380,0.11
2026-06-21 22:00:05.591,-0.008,-0.007,0.989,-39.7,5.8,5.5,0.2,-0.2,0.2,57.89481320,11.95061370,0.11
2026-06-21 22:00:05.637,-0.008,-0.007,0.989,-39.6,5.7,5.5,0.2,-0.2,0.1,57.89481320,11.95061380,0.11
2026-06-21 22:00:05.681,-0.007,-0.007,0.989,-39.7,5.8,5.5,0.2,-0.3,0.1,57.89481320,11.95061370,0.11
2026-06-21 22:00:05.726,-0.007,-0.007,0.989,-39.7,5.8,5.5,0.2,-0.3,0.2,57.89481320,11.95061380,0.11
2026-06-21 22:00:05.758,-0.008,-0.007,0.988,-39.8,5.8,5.5,0.2,-0.2,0.1,57.89481310,11.95061380,0.11
2026-06-21 22:00:05.801,-0.007,-0.007,0.988,-39.8,5.8,5.4,0.2,-0.3,0.1,57.89481310,11.95061390,0.11
2026-06-21 22:00:05.846,-0.008,-0.007,0.988,-39.7,5.7,5.4,0.2,-0.2,0.1,57.89481300,11.95061390,0.11
2026-06-21 22:00:05.876,-0.008,-0.007,0.988,-39.7,5.6,5.5,0.2,-0.2,0.2,57.89481300,11.95061390,0.11
2026-06-21 22:00:05.921,-0.008,-0.007,0.988,-39.6,5.6,5.4,0.2,-0.2,0.1,57.89481300,11.95061390,0.11
2026-06-21 22:00:05.981,-0.008,-0.007,0.988,-39.7,5.7,5.4,0.2,-0.2,0.1,57.89481290,11.95061400,0.11
2026-06-21 22:00:05.996,-0.008,-0.007,0.988,-39.6,5.7,5.5,0.2,-0.2,0.1,57.89481290,11.95061390,0.11
2026-06-21 22:00:06.041,-0.008,-0.007,0.989,-39.6,5.8,5.4,0.2,-0.2,0.1,57.89481290,11.95061390,0.11
2026-06-21 22:00:06.087,-0.008,-0.007,0.988,-39.7,5.8,5.5,0.2,-0.2,0.1,57.89481280,11.95061400,0.11
2026-06-21 22:00:06.116,-0.008,-0.007,0.989,-39.7,5.7,5.5,0.2,-0.2,0.1,57.89481270,11.95061400,0.11
2026-06-21 22:00:06.160,-0.008,-0.007,0.988,-39.7,5.8,5.5,0.2,-0.2,0.2,57.89481280,11.95061410,0.11
2026-06-21 22:00:06.206,-0.008,-0.007,0.989,-39.6,5.8,5.5,0.2,-0.2,0.1,57.89481280,11.95061400,0.11
2026-06-21 22:00:06.236,-0.008,-0.007,0.989,-39.6,5.7,5.5,0.2,-0.2,0.2,57.89481280,11.95061390,0.11
2026-06-21 22:00:06.281,-0.008,-0.007,0.989,-39.6,5.8,5.4,0.2,-0.2,0.1,57.89481270,11.95061400,0.11
2026-06-21 22:00:06.326,-0.008,-0.007,0.989,-39.7,5.7,5.5,0.2,-0.2,0.2,57.89481270,11.95061390,0.11
2026-06-21 22:00:06.357,-0.008,-0.007,0.989,-39.6,5.6,5.5,0.2,-0.2,0.1,57.89481270,11.95061380,0.11
2026-06-21 22:00:06.401,-0.008,-0.007,0.989,-39.6,5.7,5.5,0.2,-0.2,0.2,57.89481260,11.95061400,0.11
2026-06-21 22:00:06.446,-0.008,-0.007,0.988,-39.7,5.6,5.5,0.2,-0.2,0.1,57.89481270,11.95061400,0.11
2026-06-21 22:00:06.475,-0.008,-0.007,0.988,-39.7,5.6,5.5,0.2,-0.2,0.0,57.89481260,11.95061400,0.11
2026-06-21 22:00:06.521,-0.008,-0.007,0.988,-39.8,5.8,5.4,0.2,-0.2,0.2,57.89481260,11.95061400,0.11
2026-06-21 22:00:06.550,-0.008,-0.007,0.988,-39.8,5.8,5.5,0.2,-0.2,0.2,57.89481250,11.95061410,0.11
2026-06-21 22:00:06.595,-0.008,-0.007,0.989,-39.6,5.7,5.5,0.2,-0.2,0.2,57.89481240,11.95061410,0.11
2026-06-21 22:00:06.641,-0.008,-0.007,0.989,-39.6,5.7,5.5,0.2,-0.2,0.1,57.89481250,11.95061420,0.11
2026-06-21 22:00:06.686,-0.008,-0.007,0.989,-39.5,5.7,5.5,0.2,-0.2,0.2,57.89481250,11.95061410,0.11
2026-06-21 22:00:06.731,-0.008,-0.007,0.989,-39.6,5.7,5.4,0.2,-0.2,0.2,57.89481260,11.95061400,0.11
2026-06-21 22:00:06.776,-0.008,-0.007,0.988,-39.7,5.8,5.3,0.2,-0.2,0.2,57.89481250,11.95061400,0.11
2026-06-21 22:00:06.806,-0.008,-0.007,0.988,-39.7,5.7,5.3,0.2,-0.2,0.0,57.89481240,11.95061400,0.11
2026-06-21 22:00:06.836,-0.008,-0.007,0.988,-39.8,5.7,5.3,0.2,-0.2,0.1,57.89481240,11.95061400,0.11
2026-06-21 22:00:06.895,-0.007,-0.007,0.989,-39.8,5.6,5.4,0.2,-0.3,0.1,57.89481230,11.95061410,0.11
2026-06-21 22:00:06.927,-0.008,-0.007,0.988,-39.8,5.7,5.4,0.2,-0.2,0.1,57.89481230,11.95061400,0.11
2026-06-21 22:00:06.986,-0.008,-0.007,0.989,-39.6,5.7,5.4,0.2,-0.2,0.2,57.89481240,11.95061400,0.11
2026-06-21 22:00:07.031,-0.008,-0.007,0.988,-39.5,5.7,5.5,0.2,-0.2,0.2,57.89481240,11.95061410,0.11
2026-06-21 22:00:07.075,-0.008,-0.007,0.988,-39.5,5.7,5.5,0.2,-0.2,0.2,57.89481230,11.95061400,0.11
2026-06-21 22:00:07.121,-0.008,-0.007,0.988,-39.5,5.6,5.5,0.2,-0.2,0.1,57.89481230,11.95061400,0.11
2026-06-21 22:00:07.166,-0.008,-0.008,0.989,-39.6,5.6,5.5,0.1,-0.2,0.2,57.89481220,11.95061390,0.11
2026-06-21 22:00:07.196,-0.007,-0.007,0.989,-39.7,5.5,5.6,0.2,-0.3,0.2,57.89481220,11.95061380,0.11
2026-06-21 22:00:07.241,-0.008,-0.007,0.989,-39.7,5.6,5.6,0.2,-0.2,0.1,57.89481220,11.95061390,0.11
2026-06-21 22:00:07.287,-0.008,-0.007,0.988,-39.7,5.7,5.6,0.2,-0.2,0.3,57.89481230,11.95061380,0.11
2026-06-21 22:00:07.315,-0.007,-0.007,0.988,-39.7,5.6,5.6,0.2,-0.3,0.1,57.89481230,11.95061380,0.11
2026-06-21 22:00:07.361,-0.008,-0.007,0.988,-39.7,5.7,5.5,0.2,-0.2,0.3,57.89481220,11.95061390,0.11
2026-06-21 22:00:07.406,-0.007,-0.007,0.988,-39.7,5.7,5.5,0.2,-0.3,0.1,57.89481220,11.95061390,0.11
2026-06-21 22:00:07.435,-0.008,-0.007,0.989,-39.6,5.7,5.4,0.2,-0.2,0.1,57.89481210,11.95061380,0.11
2026-06-21 22:00:07.480,-0.008,-0.007,0.989,-39.6,5.7,5.5,0.2,-0.2,0.2,57.89481220,11.95061360,0.11
2026-06-21 22:00:07.526,-0.008,-0.007,0.988,-39.6,5.7,5.5,0.2,-0.2,0.3,57.89481230,11.95061360,0.11
2026-06-21 22:00:07.557,-0.008,-0.007,0.989,-39.6,5.7,5.4,0.2,-0.2,0.2,57.89481230,11.95061350,0.11
2026-06-21 22:00:07.601,-0.008,-0.007,0.988,-39.5,5.7,5.5,0.2,-0.2,0.2,57.89481240,11.95061340,0.11
2026-06-21 22:00:07.651,-0.007,-0.007,0.988,-39.5,5.7,5.4,0.2,-0.3,0.1,57.89481230,11.95061330,0.11
2026-06-21 22:00:07.676,-0.007,-0.007,0.988,-39.4,5.7,5.4,0.2,-0.3,0.1,57.89481230,11.95061340,0.11
2026-06-21 22:00:07.722,-0.007,-0.007,0.988,-39.5,5.6,5.4,0.2,-0.3,0.3,57.89481220,11.95061350,0.11
2026-06-21 22:00:07.767,-0.008,-0.007,0.988,-39.5,5.7,5.5,0.2,-0.2,0.2,57.89481220,11.95061360,0.11
2026-06-21 22:00:07.796,-0.008,-0.007,0.988,-39.5,5.7,5.4,0.2,-0.2,0.2,57.89481210,11.95061360,0.11
2026-06-21 22:00:07.841,-0.008,-0.007,0.988,-39.5,5.7,5.4,0.2,-0.2,0.1,57.89481220,11.95061340,0.11
2026-06-21 22:00:07.886,-0.008,-0.007,0.988,-39.5,5.7,5.4,0.2,-0.2,0.1,57.89481220,11.95061330,0.11
2026-06-21 22:00:07.916,-0.008,-0.007,0.988,-39.6,5.6,5.4,0.2,-0.2,0.1,57.89481220,11.95061330,0.11
2026-06-21 22:00:07.976,-0.008,-0.007,0.988,-39.8,5.6,5.4,0.2,-0.2,0.2,57.89481220,11.95061310,0.11
2026-06-21 22:00:07.991,-0.008,-0.007,0.988,-39.8,5.6,5.5,0.2,-0.2,0.1,57.89481220,11.95061310,0.11
2026-06-21 22:00:08.037,-0.008,-0.007,0.988,-39.8,5.6,5.5,0.2,-0.2,0.1,57.89481220,11.95061300,0.11
2026-06-21 22:00:08.082,-0.008,-0.007,0.989,-39.7,5.6,5.5,0.2,-0.2,0.1,57.89481220,11.95061310,0.11
2026-06-21 22:00:08.126,-0.008,-0.007,0.988,-39.7,5.6,5.5,0.2,-0.2,0.2,57.89481220,11.95061310,0.11
2026-06-21 22:00:08.157,-0.008,-0.007,0.988,-39.7,5.7,5.4,0.2,-0.2,0.2,57.89481230,11.95061300,0.11
2026-06-21 22:00:08.202,-0.007,-0.007,0.988,-39.6,5.7,5.3,0.2,-0.3,0.1,57.89481220,11.95061300,0.11
2026-06-21 22:00:08.246,-0.008,-0.007,0.988,-39.6,5.6,5.3,0.2,-0.2,0.0,57.89481220,11.95061300,0.11
2026-06-21 22:00:08.277,-0.008,-0.007,0.988,-39.6,5.6,5.3,0.2,-0.2,0.2,57.89481210,11.95061300,0.11
2026-06-21 22:00:08.321,-0.008,-0.007,0.989,-39.7,5.6,5.3,0.2,-0.2,0.0,57.89481220,11.95061290,0.11
2026-06-21 22:00:08.367,-0.008,-0.007,0.989,-39.7,5.6,5.4,0.2,-0.2,0.1,57.89481220,11.95061300,0.11
2026-06-21 22:00:08.396,-0.008,-0.007,0.989,-39.7,5.6,5.4,0.2,-0.2,0.1,57.89481210,11.95061300,0.11
2026-06-21 22:00:08.441,-0.008,-0.007,0.989,-39.7,5.7,5.5,0.2,-0.2,0.1,57.89481220,11.95061280,0.11
2026-06-21 22:00:08.486,-0.008,-0.007,0.989,-39.6,5.6,5.5,0.2,-0.2,0.0,57.89481220,11.95061270,0.11
2026-06-21 22:00:08.516,-0.008,-0.007,0.989,-39.7,5.6,5.5,0.2,-0.2,0.1,57.89481210,11.95061280,0.11
2026-06-21 22:00:08.561,-0.008,-0.007,0.989,-39.7,5.7,5.4,0.2,-0.2,0.2,57.89481210,11.95061280,0.11
2026-06-21 22:00:08.606,-0.007,-0.007,0.989,-39.8,5.7,5.4,0.2,-0.3,0.2,57.89481210,11.95061270,0.11
2026-06-21 22:00:08.636,-0.008,-0.007,0.989,-39.7,5.6,5.3,0.2,-0.2,0.2,57.89481210,11.95061260,0.11
2026-06-21 22:00:08.682,-0.008,-0.007,0.988,-39.6,5.6,5.3,0.2,-0.2,0.2,57.89481200,11.95061280,0.11
2026-06-21 22:00:08.726,-0.008,-0.007,0.988,-39.6,5.6,5.4,0.2,-0.2,0.1,57.89481200,11.95061280,0.11
2026-06-21 22:00:08.756,-0.008,-0.007,0.988,-39.6,5.6,5.3,0.2,-0.2,0.2,57.89481190,11.95061290,0.11
2026-06-21 22:00:08.801,-0.008,-0.007,0.988,-39.8,5.7,5.3,0.2,-0.2,0.2,57.89481190,11.95061280,0.11
2026-06-21 22:00:08.847,-0.008,-0.007,0.988,-39.8,5.7,5.3,0.2,-0.2,0.2,57.89481200,11.95061270,0.11
2026-06-21 22:00:08.876,-0.008,-0.007,0.989,-39.8,5.8,5.4,0.2,-0.2,0.2,57.89481190,11.95061290,0.11
2026-06-21 22:00:08.921,-0.008,-0.007,0.988,-39.8,5.8,5.4,0.2,-0.2,0.1,57.89481190,11.95061290,0.11
2026-06-21 22:00:08.982,-0.008,-0.007,0.988,-39.8,5.7,5.4,0.2,-0.2,0.2,57.89481200,11.95061280,0.11
2026-06-21 22:00:09.041,-0.008,-0.007,0.988,-39.7,5.6,5.4,0.2,-0.2,0.3,57.89481180,11.95061290,0.11
2026-06-21 22:00:09.086,-0.008,-0.007,0.989,-39.7,5.6,5.4,0.2,-0.2,0.2,57.89481180,11.95061280,0.11
2026-06-21 22:00:09.116,-0.008,-0.007,0.988,-39.7,5.6,5.6,0.2,-0.2,0.2,57.89481180,11.95061290,0.11
2026-06-21 22:00:09.161,-0.008,-0.007,0.988,-39.7,5.7,5.5,0.2,-0.2,0.1,57.89481180,11.95061290,0.11
2026-06-21 22:00:09.207,-0.007,-0.007,0.988,-39.6,5.7,5.6,0.2,-0.3,0.1,57.89481190,11.95061290,0.11
2026-06-21 22:00:09.237,-0.008,-0.007,0.988,-39.6,5.9,5.5,0.2,-0.2,0.1,57.89481180,11.95061290,0.11
2026-06-21 22:00:09.297,-0.007,-0.007,0.988,-39.6,5.7,5.5,0.2,-0.3,0.1,57.89481180,11.95061290,0.11
2026-06-21 22:00:09.342,-0.007,-0.007,0.989,-39.6,5.8,5.3,0.2,-0.3,0.1,57.89481180,11.95061290,0.11
2026-06-21 22:00:09.372,-0.009,-0.007,0.989,-39.7,5.7,5.2,0.2,-0.2,0.1,57.89481180,11.95061290,0.11
2026-06-21 22:00:09.417,-0.006,-0.008,0.989,-39.7,5.7,5.3,0.1,-0.4,0.1,57.89481180,11.95061290,0.11
2026-06-21 22:00:09.446,-0.009,-0.007,0.989,-39.7,5.9,5.3,0.2,-0.2,0.1,57.89481180,11.95061280,0.11
2026-06-21 22:00:09.477,-0.008,-0.007,0.989,-39.7,5.7,5.5,0.2,-0.2,0.1,57.89481180,11.95061280,0.11
2026-06-21 22:00:09.521,-0.008,-0.007,0.988,-39.7,5.8,5.4,0.2,-0.2,0.1,57.89481180,11.95061280,0.11
2026-06-21 22:00:09.567,-0.008,-0.007,0.989,-39.6,5.7,5.3,0.2,-0.2,0.2,57.89481180,11.95061290,0.11
2026-06-21 22:00:09.597,-0.007,-0.007,0.988,-39.6,5.8,5.2,0.2,-0.3,0.3,57.89481170,11.95061280,0.11
2026-06-21 22:00:09.644,-0.008,-0.007,0.988,-39.6,5.7,5.2,0.2,-0.2,0.2,57.89481180,11.95061280,0.11
2026-06-21 22:00:09.687,-0.007,-0.008,0.988,-39.6,5.7,5.4,0.1,-0.3,0.3,57.89481190,11.95061280,0.11
2026-06-21 22:00:09.718,-0.008,-0.007,0.988,-39.6,5.8,5.3,0.2,-0.2,0.1,57.89481190,11.95061280,0.11
2026-06-21 22:00:09.763,-0.007,-0.007,0.988,-39.6,5.6,5.4,0.2,-0.3,0.2,57.89481180,11.95061270,0.11
2026-06-21 22:00:09.807,-0.008,-0.007,0.988,-39.8,5.7,5.4,0.2,-0.2,0.2,57.89481180,11.95061270,0.11
2026-06-21 22:00:09.836,-0.008,-0.007,0.988,-39.8,5.7,5.4,0.2,-0.2,0.1,57.89481180,11.95061270,0.11
2026-06-21 22:00:09.883,-0.007,-0.007,0.988,-39.7,5.7,5.5,0.2,-0.3,0.1,57.89481180,11.95061270,0.11
2026-06-21 22:00:09.927,-0.008,-0.007,0.988,-39.6,5.8,5.4,0.2,-0.2,0.3,57.89481190,11.95061240,0.11
2026-06-21 22:00:09.972,-0.008,-0.007,0.988,-39.6,5.8,5.4,0.2,-0.2,0.0,57.89481190,11.95061250,0.11
2026-06-21 22:00:10.001,-0.008,-0.007,0.988,-39.5,5.8,5.5,0.2,-0.2,0.0,57.89481190,11.95061250,0.11
2026-06-21 22:00:10.049,-0.008,-0.007,0.988,-39.6,5.7,5.5,0.2,-0.2,0.2,57.89481190,11.95061260,0.11
2026-06-21 22:00:10.078,-0.008,-0.007,0.988,-39.6,5.7,5.5,0.2,-0.2,0.1,57.89481190,11.95061260,0.11
2026-06-21 22:00:10.121,-0.008,-0.007,0.988,-39.6,5.6,5.6,0.2,-0.2,0.1,57.89481190,11.95061250,0.11
2026-06-21 22:00:10.167,-0.008,-0.007,0.988,-39.6,5.7,5.5,0.2,-0.2,0.1,57.89481190,11.95061250,0.11
2026-06-21 22:00:10.197,-0.008,-0.007,0.988,-39.6,5.7,5.6,0.2,-0.2,0.2,57.89481180,11.95061250,0.11
2026-06-21 22:00:10.242,-0.007,-0.007,0.988,-39.6,5.7,5.6,0.2,-0.3,0.1,57.89481190,11.95061250,0.11
2026-06-21 22:00:10.287,-0.008,-0.007,0.988,-39.6,5.8,5.5,0.2,-0.2,0.1,57.89481190,11.95061250,0.11
2026-06-21 22:00:10.316,-0.008,-0.007,0.988,-39.7,5.8,5.4,0.2,-0.2,0.1,57.89481190,11.95061250,0.11
2026-06-21 22:00:10.362,-0.008,-0.007,0.988,-39.7,5.8,5.4,0.2,-0.2,0.3,57.89481180,11.95061270,0.11
2026-06-21 22:00:10.407,-0.007,-0.007,0.989,-39.6,5.8,5.4,0.2,-0.3,0.1,57.89481190,11.95061260,0.11
2026-06-21 22:00:10.436,-0.007,-0.007,0.989,-39.6,5.8,5.4,0.2,-0.3,0.0,57.89481190,11.95061260,0.11
2026-06-21 22:00:10.481,-0.008,-0.007,0.988,-39.5,5.7,5.5,0.2,-0.2,0.2,57.89481190,11.95061250,0.11
2026-06-21 22:00:10.512,-0.008,-0.007,0.989,-39.6,5.7,5.5,0.2,-0.2,0.2,57.89481180,11.95061240,0.11
2026-06-21 22:00:10.571,-0.008,-0.007,0.988,-39.7,5.8,5.4,0.2,-0.2,0.2,57.89481190,11.95061250,0.11
2026-06-21 22:00:10.616,-0.008,-0.007,0.989,-39.7,5.7,5.4,0.2,-0.2,0.1,57.89481200,11.95061250,0.11
2026-06-21 22:00:10.646,-0.007,-0.007,0.989,-39.7,5.7,5.4,0.2,-0.3,0.2,57.89481190,11.95061240,0.11
2026-06-21 22:00:10.691,-0.008,-0.007,0.989,-39.7,5.8,5.5,0.2,-0.2,0.1,57.89481190,11.95061250,0.11
2026-06-21 22:00:10.721,-0.008,-0.007,0.989,-39.6,5.8,5.5,0.2,-0.2,0.1,57.89481190,11.95061250,0.11
2026-06-21 22:00:10.767,-0.007,-0.007,0.989,-39.6,5.8,5.5,0.2,-0.3,0.1,57.89481190,11.95061250,0.11
2026-06-21 22:00:10.797,-0.008,-0.007,0.989,-39.6,5.9,5.5,0.2,-0.2,0.1,57.89481190,11.95061240,0.11
2026-06-21 22:00:10.841,-0.008,-0.007,0.989,-39.5,5.8,5.4,0.2,-0.2,0.1,57.89481190,11.95061240,0.11
2026-06-21 22:00:10.887,-0.008,-0.007,0.989,-39.6,5.8,5.4,0.2,-0.2,0.1,57.89481190,11.95061250,0.11
2026-06-21 22:00:10.916,-0.008,-0.007,0.989,-39.7,5.8,5.4,0.2,-0.2,0.1,57.89481190,11.95061250,0.11
2026-06-21 22:00:10.977,-0.007,-0.007,0.988,-39.6,5.8,5.4,0.2,-0.3,0.1,57.89481190,11.95061250,0.11
2026-06-21 22:00:10.993,-0.008,-0.007,0.988,-39.6,5.8,5.4,0.2,-0.2,0.0,57.89481190,11.95061260,0.11
2026-06-21 22:00:11.037,-0.008,-0.007,0.988,-39.7,5.8,5.4,0.2,-0.2,0.1,57.89481190,11.95061260,0.11
2026-06-21 22:00:11.082,-0.008,-0.007,0.988,-39.7,5.7,5.5,0.2,-0.2,0.1,57.89481180,11.95061260,0.11
2026-06-21 22:00:11.128,-0.008,-0.007,0.988,-39.8,5.7,5.4,0.2,-0.2,0.2,57.89481180,11.95061250,0.11
2026-06-21 22:00:11.159,-0.008,-0.007,0.988,-39.6,5.7,5.5,0.2,-0.2,0.0,57.89481190,11.95061260,0.11
2026-06-21 22:00:11.202,-0.008,-0.007,0.989,-39.6,5.7,5.5,0.2,-0.2,0.0,57.89481190,11.95061260,0.11
2026-06-21 22:00:11.246,-0.008,-0.007,0.989,-39.6,5.8,5.5,0.2,-0.2,0.1,57.89481190,11.95061260,0.11
2026-06-21 22:00:11.277,-0.007,-0.007,0.988,-39.6,5.8,5.5,0.2,-0.3,0.1,57.89481190,11.95061260,0.11
2026-06-21 22:00:11.322,-0.007,-0.007,0.988,-39.7,5.8,5.5,0.2,-0.3,0.3,57.89481200,11.95061240,0.11
2026-06-21 22:00:11.367,-0.007,-0.007,0.988,-39.6,5.8,5.4,0.2,-0.3,0.1,57.89481190,11.95061250,0.11
2026-06-21 22:00:11.397,-0.007,-0.007,0.988,-39.7,5.8,5.5,0.2,-0.3,0.1,57.89481190,11.95061250,0.11
2026-06-21 22:00:11.440,-0.008,-0.007,0.989,-39.7,5.7,5.6,0.2,-0.2,0.3,57.89481190,11.95061260,0.11
2026-06-21 22:00:11.471,-0.008,-0.007,0.989,-39.7,5.7,5.6,0.2,-0.2,0.2,57.89481190,11.95061260,0.11
2026-06-21 22:00:11.516,-0.008,-0.007,0.989,-39.7,5.7,5.6,0.2,-0.2,0.2,57.89481200,11.95061250,0.11
2026-06-21 22:00:11.562,-0.008,-0.007,0.988,-39.6,5.6,5.5,0.2,-0.2,0.2,57.89481200,11.95061240,0.11
2026-06-21 22:00:11.606,-0.008,-0.007,0.988,-39.6,5.6,5.4,0.2,-0.2,0.1,57.89481200,11.95061240,0.11
2026-06-21 22:00:11.636,-0.008,-0.007,0.988,-39.6,5.6,5.5,0.2,-0.2,0.1,57.89481190,11.95061250,0.11
2026-06-21 22:00:11.681,-0.008,-0.007,0.989,-39.7,5.7,5.5,0.2,-0.2,0.0,57.89481190,11.95061250,0.11
2026-06-21 22:00:11.726,-0.008,-0.007,0.989,-39.7,5.8,5.6,0.2,-0.2,0.0,57.89481190,11.95061250,0.11
2026-06-21 22:00:11.756,-0.007,-0.007,0.989,-39.8,5.8,5.6,0.2,-0.3,0.2,57.89481200,11.95061260,0.11
2026-06-21 22:00:11.801,-0.008,-0.007,0.989,-39.8,5.8,5.6,0.2,-0.2,0.0,57.89481200,11.95061250,0.11
2026-06-21 22:00:11.846,-0.008,-0.007,0.989,-39.7,5.8,5.5,0.2,-0.2,0.1,57.89481200,11.95061250,0.11
2026-06-21 22:00:11.876,-0.008,-0.007,0.988,-39.7,5.7,5.5,0.2,-0.2,0.1,57.89481200,11.95061250,0.11
2026-06-21 22:00:11.922,-0.008,-0.007,0.988,-39.7,5.8,5.5,0.2,-0.2,0.2,57.89481190,11.95061260,0.11
2026-06-21 22:00:11.984,-0.008,-0.007,0.988,-39.6,5.8,5.5,0.2,-0.2,0.1,57.89481190,11.95061270,0.11
2026-06-21 22:00:11.998,-0.008,-0.007,0.989,-39.7,5.7,5.5,0.2,-0.2,0.1,57.89481190,11.95061260,0.11
2026-06-21 22:00:12.042,-0.008,-0.007,0.989,-39.6,5.8,5.5,0.2,-0.2,0.2,57.89481200,11.95061260,0.11
2026-06-21 22:00:12.087,-0.008,-0.007,0.989,-39.6,5.7,5.4,0.2,-0.2,0.2,57.89481200,11.95061260,0.11
2026-06-21 22:00:12.117,-0.007,-0.007,0.989,-39.5,5.6,5.4,0.2,-0.3,0.2,57.89481190,11.95061260,0.11
2026-06-21 22:00:12.162,-0.008,-0.007,0.988,-39.5,5.6,5.4,0.2,-0.2,0.2,57.89481190,11.95061260,0.11
2026-06-21 22:00:12.207,-0.007,-0.007,0.989,-39.6,5.5,5.4,0.2,-0.3,0.1,57.89481190,11.95061260,0.11
2026-06-21 22:00:12.237,-0.008,-0.007,0.989,-39.7,5.5,5.5,0.2,-0.2,0.2,57.89481200,11.95061250,0.11
2026-06-21 22:00:12.282,-0.008,-0.007,0.988,-39.7,5.6,5.5,0.2,-0.2,0.1,57.89481210,11.95061250,0.11
2026-06-21 22:00:12.327,-0.008,-0.007,0.989,-39.7,5.7,5.5,0.2,-0.2,0.1,57.89481210,11.95061250,0.11
2026-06-21 22:00:12.356,-0.008,-0.007,0.988,-39.6,5.7,5.4,0.2,-0.2,0.2,57.89481200,11.95061260,0.11
2026-06-21 22:00:12.403,-0.008,-0.007,0.988,-39.5,5.7,5.3,0.2,-0.2,0.1,57.89481200,11.95061260,0.11
2026-06-21 22:00:12.434,-0.008,-0.007,0.988,-39.6,5.6,5.3,0.2,-0.2,0.2,57.89481210,11.95061240,0.11
2026-06-21 22:00:12.476,-0.008,-0.007,0.988,-39.6,5.7,5.3,0.2,-0.2,0.2,57.89481210,11.95061240,0.11
2026-06-21 22:00:12.521,-0.008,-0.007,0.988,-39.6,5.6,5.4,0.2,-0.2,0.1,57.89481220,11.95061230,0.11
2026-06-21 22:00:12.566,-0.008,-0.007,0.988,-39.7,5.6,5.5,0.2,-0.2,0.2,57.89481220,11.95061240,0.11
2026-06-21 22:00:12.595,-0.008,-0.007,0.988,-39.6,5.7,5.5,0.2,-0.2,0.1,57.89481220,11.95061240,0.11
2026-06-21 22:00:12.641,-0.007,-0.007,0.988,-39.7,5.6,5.6,0.2,-0.3,0.1,57.89481220,11.95061230,0.11
2026-06-21 22:00:12.687,-0.008,-0.007,0.988,-39.7,5.7,5.6,0.2,-0.2,0.0,57.89481230,11.95061230,0.11
2026-06-21 22:00:12.716,-0.007,-0.007,0.988,-39.7,5.7,5.5,0.2,-0.3,0.2,57.89481220,11.95061230,0.11
2026-06-21 22:00:12.761,-0.008,-0.007,0.989,-39.6,5.6,5.5,0.2,-0.2,0.1,57.89481230,11.95061230,0.11
2026-06-21 22:00:12.807,-0.008,-0.007,0.988,-39.6,5.6,5.4,0.2,-0.2,0.0,57.89481230,11.95061230,0.11
2026-06-21 22:00:12.836,-0.008,-0.007,0.988,-39.6,5.7,5.4,0.2,-0.2,0.1,57.89481230,11.95061220,0.11
2026-06-21 22:00:12.882,-0.008,-0.007,0.989,-39.6,5.7,5.5,0.2,-0.2,0.1,57.89481240,11.95061210,0.11
2026-06-21 22:00:12.912,-0.008,-0.007,0.989,-39.7,5.7,5.5,0.2,-0.2,0.0,57.89481240,11.95061210,0.11
2026-06-21 22:00:12.972,-0.008,-0.007,0.989,-39.7,5.7,5.4,0.2,-0.2,0.1,57.89481230,11.95061210,0.11
2026-06-21 22:00:13.003,-0.008,-0.007,0.989,-39.7,5.7,5.4,0.2,-0.2,0.1,57.89481240,11.95061210,0.11
2026-06-21 22:00:13.047,-0.008,-0.007,0.989,-39.7,5.7,5.4,0.2,-0.2,0.1,57.89481240,11.95061220,0.11
2026-06-21 22:00:13.077,-0.008,-0.007,0.988,-39.7,5.7,5.5,0.2,-0.2,0.1,57.89481240,11.95061210,0.11
2026-06-21 22:00:13.138,-0.008,-0.007,0.988,-39.7,5.6,5.5,0.2,-0.2,0.1,57.89481250,11.95061200,0.11
2026-06-21 22:00:13.166,-0.007,-0.007,0.989,-39.7,5.5,5.5,0.2,-0.3,0.1,57.89481250,11.95061200,0.11
2026-06-21 22:00:13.197,-0.008,-0.007,0.989,-39.7,5.6,5.5,0.2,-0.2,0.1,57.89481250,11.95061200,0.11
2026-06-21 22:00:13.241,-0.008,-0.007,0.989,-39.6,5.7,5.5,0.2,-0.2,0.2,57.89481240,11.95061200,0.11
2026-06-21 22:00:13.288,-0.008,-0.007,0.989,-39.6,5.8,5.5,0.2,-0.2,0.1,57.89481250,11.95061190,0.11
2026-06-21 22:00:13.317,-0.007,-0.007,0.989,-39.6,5.8,5.4,0.2,-0.3,0.1,57.89481250,11.95061190,0.11
2026-06-21 22:00:13.361,-0.007,-0.007,0.989,-39.6,5.7,5.5,0.2,-0.3,0.1,57.89481250,11.95061190,0.11
2026-06-21 22:00:13.395,-0.007,-0.007,0.988,-39.8,5.8,5.3,0.2,-0.3,0.1,57.89481260,11.95061190,0.11
2026-06-21 22:00:13.437,-0.007,-0.007,0.988,-39.7,5.8,5.3,0.2,-0.3,0.1,57.89481260,11.95061190,0.11
2026-06-21 22:00:13.481,-0.008,-0.007,0.988,-39.7,5.7,5.5,0.2,-0.2,0.2,57.89481260,11.95061190,0.11
2026-06-21 22:00:13.526,-0.008,-0.007,0.989,-39.8,5.7,5.5,0.2,-0.2,0.1,57.89481260,11.95061190,0.11
2026-06-21 22:00:13.556,-0.008,-0.007,0.989,-39.8,5.7,5.4,0.2,-0.2,0.1,57.89481270,11.95061180,0.11
2026-06-21 22:00:13.621,-0.007,-0.007,0.989,-39.7,5.6,5.5,0.2,-0.3,0.1,57.89481260,11.95061180,0.11
2026-06-21 22:00:13.646,-0.008,-0.007,0.988,-39.8,5.7,5.4,0.2,-0.2,0.1,57.89481270,11.95061160,0.11
2026-06-21 22:00:13.677,-0.008,-0.007,0.988,-39.8,5.7,5.5,0.2,-0.2,0.2,57.89481260,11.95061170,0.11
2026-06-21 22:00:13.720,-0.008,-0.007,0.988,-39.7,5.7,5.6,0.2,-0.2,0.2,57.89481270,11.95061160,0.11
2026-06-21 22:00:13.766,-0.008,-0.007,0.988,-39.7,5.6,5.6,0.2,-0.2,0.1,57.89481270,11.95061170,0.11
2026-06-21 22:00:13.796,-0.007,-0.007,0.988,-39.7,5.6,5.5,0.2,-0.3,0.1,57.89481270,11.95061170,0.11
2026-06-21 22:00:13.840,-0.007,-0.007,0.988,-39.7,5.6,5.5,0.2,-0.3,0.1,57.89481270,11.95061160,0.11
2026-06-21 22:00:13.871,-0.007,-0.007,0.989,-39.7,5.6,5.5,0.2,-0.3,0.1,57.89481270,11.95061160,0.11
2026-06-21 22:00:13.915,-0.008,-0.007,0.989,-39.7,5.7,5.5,0.2,-0.2,0.2,57.89481270,11.95061150,0.11
2026-06-21 22:00:13.976,-0.008,-0.007,0.989,-39.7,5.6,5.5,0.2,-0.2,0.1,57.89481280,11.95061150,0.11
2026-06-21 22:00:14.005,-0.008,-0.007,0.989,-39.6,5.6,5.6,0.2,-0.2,0.2,57.89481280,11.95061160,0.11
2026-06-21 22:00:14.036,-0.008,-0.007,0.988,-39.7,5.7,5.5,0.2,-0.2,0.2,57.89481280,11.95061160,0.11
2026-06-21 22:00:14.082,-0.007,-0.007,0.988,-39.7,5.7,5.6,0.2,-0.3,0.1,57.89481270,11.95061160,0.11
2026-06-21 22:00:14.126,-0.007,-0.007,0.988,-39.7,5.7,5.6,0.2,-0.3,0.3,57.89481270,11.95061140,0.11
2026-06-21 22:00:14.155,-0.007,-0.007,0.988,-39.8,5.7,5.6,0.2,-0.3,0.1,57.89481270,11.95061140,0.11
2026-06-21 22:00:14.202,-0.007,-0.007,0.988,-39.7,5.7,5.6,0.2,-0.3,0.1,57.89481270,11.95061150,0.11
2026-06-21 22:00:14.247,-0.008,-0.007,0.989,-39.8,5.8,5.6,0.2,-0.2,0.0,57.89481280,11.95061140,0.11
2026-06-21 22:00:14.278,-0.008,-0.007,0.989,-39.7,5.8,5.5,0.2,-0.2,0.1,57.89481280,11.95061140,0.11
2026-06-21 22:00:14.321,-0.008,-0.007,0.989,-39.7,5.7,5.5,0.2,-0.2,0.2,57.89481280,11.95061130,0.11
2026-06-21 22:00:14.368,-0.007,-0.007,0.989,-39.7,5.6,5.4,0.2,-0.3,0.1,57.89481280,11.95061130,0.11
2026-06-21 22:00:14.411,-0.008,-0.007,0.989,-39.8,5.6,5.5,0.2,-0.2,0.1,57.89481280,11.95061130,0.11
2026-06-21 22:00:14.440,-0.008,-0.007,0.989,-39.8,5.6,5.5,0.2,-0.2,0.2,57.89481270,11.95061140,0.11
2026-06-21 22:00:14.471,-0.008,-0.007,0.989,-39.7,5.7,5.4,0.2,-0.2,0.2,57.89481280,11.95061130,0.11
2026-06-21 22:00:14.516,-0.008,-0.007,0.989,-39.7,5.6,5.4,0.2,-0.2,0.1,57.89481280,11.95061130,0.11
2026-06-21 22:00:14.561,-0.008,-0.007,0.989,-39.7,5.6,5.4,0.2,-0.2,0.1,57.89481280,11.95061130,0.11
2026-06-21 22:00:14.606,-0.008,-0.007,0.989,-39.7,5.6,5.4,0.2,-0.2,0.2,57.89481270,11.95061130,0.11
2026-06-21 22:00:14.636,-0.007,-0.008,0.989,-39.7,5.6,5.4,0.1,-0.3,0.1,57.89481270,11.95061120,0.11
2026-06-21 22:00:14.681,-0.008,-0.008,0.989,-39.6,5.6,5.5,0.1,-0.2,0.2,57.89481270,11.95061140,0.11
2026-06-21 22:00:14.726,-0.008,-0.007,0.989,-39.6,5.6,5.5,0.2,-0.2,0.3,57.89481280,11.95061130,0.11
2026-06-21 22:00:14.756,-0.008,-0.007,0.989,-39.6,5.6,5.5,0.2,-0.2,0.1,57.89481280,11.95061140,0.11
2026-06-21 22:00:14.801,-0.007,-0.007,0.989,-39.7,5.6,5.5,0.2,-0.3,0.2,57.89481280,11.95061140,0.11
2026-06-21 22:00:14.846,-0.007,-0.007,0.989,-39.7,5.6,5.5,0.2,-0.3,0.1,57.89481280,11.95061130,0.11
2026-06-21 22:00:14.877,-0.008,-0.007,0.988,-39.8,5.7,5.5,0.2,-0.2,0.3,57.89481280,11.95061120,0.11
2026-06-21 22:00:14.921,-0.008,-0.007,0.989,-39.8,5.7,5.4,0.2,-0.2,0.2,57.89481270,11.95061120,0.11
2026-06-21 22:00:14.982,-0.008,-0.007,0.989,-39.7,5.8,5.3,0.2,-0.2,0.1,57.89481270,11.95061120,0.11
2026-06-21 22:00:14.997,-0.008,-0.007,0.989,-39.7,5.8,5.3,0.2,-0.2,0.1,57.89481270,11.95061120,0.11
2026-06-21 22:00:15.041,-0.008,-0.007,0.989,-39.7,5.8,5.4,0.2,-0.2,0.1,57.89481270,11.95061110,0.11
2026-06-21 22:00:15.086,-0.008,-0.007,0.989,-39.7,5.8,5.4,0.2,-0.2,0.0,57.89481270,11.95061120,0.11
2026-06-21 22:00:15.116,-0.008,-0.007,0.989,-39.8,5.8,5.5,0.2,-0.2,0.0,57.89481270,11.95061110,0.11
2026-06-21 22:00:15.161,-0.008,-0.007,0.988,-39.8,5.8,5.5,0.2,-0.2,0.2,57.89481280,11.95061110,0.11
2026-06-21 22:00:15.207,-0.007,-0.007,0.989,-39.7,5.8,5.6,0.2,-0.3,0.2,57.89481280,11.95061120,0.11
2026-06-21 22:00:15.236,-0.008,-0.007,0.989,-39.8,5.9,5.6,0.2,-0.2,0.1,57.89481270,11.95061110,0.11
2026-06-21 22:00:15.281,-0.008,-0.007,0.989,-39.8,5.8,5.6,0.2,-0.2,0.2,57.89481270,11.95061100,0.11
2026-06-21 22:00:15.326,-0.008,-0.007,0.989,-39.8,5.7,5.5,0.2,-0.2,0.1,57.89481270,11.95061110,0.11
2026-06-21 22:00:15.356,-0.008,-0.007,0.989,-39.8,5.8,5.5,0.2,-0.2,0.1,57.89481270,11.95061110,0.11
2026-06-21 22:00:15.401,-0.008,-0.007,0.989,-39.8,5.7,5.6,0.2,-0.2,0.1,57.89481280,11.95061110,0.11
2026-06-21 22:00:15.446,-0.008,-0.007,0.988,-39.7,5.6,5.6,0.2,-0.2,0.1,57.89481270,11.95061100,0.11
2026-06-21 22:00:15.476,-0.008,-0.007,0.988,-39.7,5.7,5.6,0.2,-0.2,0.2,57.89481270,11.95061100,0.11
2026-06-21 22:00:15.521,-0.008,-0.007,0.988,-39.7,5.6,5.6,0.2,-0.2,0.0,57.89481270,11.95061100,0.11
2026-06-21 22:00:15.551,-0.008,-0.007,0.988,-39.7,5.7,5.6,0.2,-0.2,0.1,57.89481270,11.95061100,0.11
2026-06-21 22:00:15.596,-0.008,-0.007,0.989,-39.8,5.7,5.6,0.2,-0.2,0.0,57.89481270,11.95061100,0.11
2026-06-21 22:00:15.641,-0.008,-0.007,0.989,-39.8,5.7,5.5,0.2,-0.2,0.1,57.89481270,11.95061110,0.11
2026-06-21 22:00:15.688,-0.008,-0.007,0.989,-39.8,5.7,5.4,0.2,-0.2,0.2,57.89481270,11.95061100,0.11
2026-06-21 22:00:15.716,-0.008,-0.007,0.989,-39.8,5.8,5.4,0.2,-0.2,0.1,57.89481260,11.95061110,0.11
2026-06-21 22:00:15.761,-0.008,-0.007,0.989,-39.7,5.8,5.3,0.2,-0.2,0.2,57.89481260,11.95061100,0.11
2026-06-21 22:00:15.791,-0.008,-0.007,0.989,-39.7,5.8,5.4,0.2,-0.2,0.0,57.89481270,11.95061100,0.11
2026-06-21 22:00:15.837,-0.008,-0.007,0.989,-39.7,5.8,5.4,0.2,-0.2,0.2,57.89481270,11.95061100,0.11
2026-06-21 22:00:15.882,-0.007,-0.007,0.989,-39.7,5.7,5.4,0.2,-0.3,0.1,57.89481260,11.95061100,0.11
2026-06-21 22:00:15.911,-0.008,-0.007,0.988,-39.7,5.6,5.5,0.2,-0.2,0.1,57.89481260,11.95061100,0.11
2026-06-21 22:00:15.972,-0.007,-0.007,0.988,-39.8,5.7,5.6,0.2,-0.3,0.3,57.89481260,11.95061110,0.11
2026-06-21 22:00:16.002,-0.008,-0.007,0.988,-39.8,5.8,5.6,0.2,-0.2,0.1,57.89481260,11.95061100,0.11
2026-06-21 22:00:16.031,-0.008,-0.007,0.988,-39.7,5.8,5.6,0.2,-0.2,0.2,57.89481260,11.95061090,0.11
2026-06-21 22:00:16.076,-0.007,-0.007,0.988,-39.7,5.8,5.6,0.2,-0.3,0.1,57.89481260,11.95061090,0.11
2026-06-21 22:00:16.121,-0.008,-0.008,0.988,-39.7,5.8,5.5,0.1,-0.2,0.2,57.89481260,11.95061100,0.11
2026-06-21 22:00:16.151,-0.008,-0.007,0.988,-39.7,5.8,5.4,0.2,-0.2,0.1,57.89481260,11.95061100,0.11
2026-06-21 22:00:16.197,-0.008,-0.007,0.988,-39.7,5.8,5.5,0.2,-0.2,0.2,57.89481260,11.95061090,0.11
2026-06-21 22:00:16.240,-0.008,-0.007,0.989,-39.7,5.8,5.4,0.2,-0.2,0.2,57.89481250,11.95061090,0.11
2026-06-21 22:00:16.270,-0.008,-0.007,0.988,-39.7,5.9,5.4,0.2,-0.2,0.1,57.89481260,11.95061080,0.11
2026-06-21 22:00:16.316,-0.008,-0.007,0.988,-39.7,5.7,5.5,0.2,-0.2,0.1,57.89481260,11.95061090,0.11
2026-06-21 22:00:16.361,-0.008,-0.007,0.989,-39.7,5.7,5.4,0.2,-0.2,0.1,57.89481260,11.95061090,0.11
2026-06-21 22:00:16.390,-0.008,-0.007,0.988,-39.7,5.7,5.5,0.2,-0.2,0.1,57.89481260,11.95061100,0.11
2026-06-21 22:00:16.436,-0.007,-0.007,0.989,-39.7,5.5,5.5,0.2,-0.3,0.1,57.89481260,11.95061090,0.11
2026-06-21 22:00:16.482,-0.007,-0.007,0.989,-39.7,5.6,5.4,0.2,-0.3,0.2,57.89481260,11.95061100,0.11
2026-06-21 22:00:16.526,-0.007,-0.007,0.989,-39.7,5.7,5.4,0.2,-0.3,0.1,57.89481260,11.95061100,0.11
2026-06-21 22:00:16.556,-0.007,-0.007,0.989,-39.6,5.7,5.5,0.2,-0.3,0.1,57.89481250,11.95061100,0.11
2026-06-21 22:00:16.601,-0.007,-0.007,0.989,-39.6,5.8,5.5,0.2,-0.3,0.1,57.89481250,11.95061100,0.11
2026-06-21 22:00:16.646,-0.007,-0.007,0.989,-39.6,5.8,5.5,0.2,-0.3,0.0,57.89481250,11.95061100,0.11
2026-06-21 22:00:16.676,-0.008,-0.007,0.989,-39.7,5.7,5.5,0.2,-0.2,0.2,57.89481250,11.95061110,0.11
2026-06-21 22:00:16.721,-0.008,-0.007,0.989,-39.7,5.7,5.4,0.2,-0.2,0.1,57.89481250,11.95061100,0.11
2026-06-21 22:00:16.767,-0.007,-0.007,0.989,-39.6,5.6,5.4,0.2,-0.3,0.2,57.89481250,11.95061090,0.11
2026-06-21 22:00:16.797,-0.007,-0.007,0.989,-39.6,5.7,5.4,0.2,-0.3,0.1,57.89481250,11.95061100,0.11
2026-06-21 22:00:16.841,-0.007,-0.007,0.988,-39.6,5.5,5.3,0.2,-0.3,0.2,57.89481240,11.95061110,0.11
2026-06-21 22:00:16.871,-0.007,-0.007,0.988,-39.6,5.6,5.4,0.2,-0.3,0.2,57.89481240,11.95061100,0.11
2026-06-21 22:00:16.918,-0.007,-0.007,0.989,-39.7,5.6,5.4,0.2,-0.3,0.1,57.89481240,11.95061100,0.11
2026-06-21 22:00:16.977,-0.007,-0.007,0.989,-39.7,5.6,5.4,0.2,-0.3,0.1,57.89481240,11.95061090,0.11
2026-06-21 22:00:16.992,-0.007,-0.007,0.989,-39.8,5.8,5.5,0.2,-0.3,0.2,57.89481250,11.95061090,0.11
2026-06-21 22:00:17.051,-0.007,-0.007,0.989,-39.7,5.8,5.4,0.2,-0.3,0.1,57.89481250,11.95061100,0.11
2026-06-21 22:00:17.081,-0.008,-0.007,0.989,-39.7,5.8,5.4,0.2,-0.2,0.2,57.89481250,11.95061110,0.11
2026-06-21 22:00:17.111,-0.007,-0.007,0.989,-39.7,5.8,5.4,0.2,-0.3,0.2,57.89481240,11.95061120,0.11
2026-06-21 22:00:17.157,-0.008,-0.007,0.989,-39.7,5.7,5.4,0.2,-0.2,0.1,57.89481240,11.95061110,0.11
2026-06-21 22:00:17.202,-0.008,-0.007,0.988,-39.7,5.7,5.4,0.2,-0.2,0.1,57.89481240,11.95061110,0.11
2026-06-21 22:00:17.231,-0.008,-0.007,0.988,-39.7,5.7,5.4,0.2,-0.2,0.1,57.89481250,11.95061110,0.11
2026-06-21 22:00:17.277,-0.008,-0.007,0.988,-39.7,5.8,5.4,0.2,-0.2,0.1,57.89481240,11.95061110,0.11
2026-06-21 22:00:17.322,-0.008,-0.007,0.989,-39.7,5.7,5.4,0.2,-0.2,0.0,57.89481240,11.95061110,0.11
2026-06-21 22:00:17.351,-0.008,-0.007,0.989,-39.7,5.7,5.4,0.2,-0.2,0.2,57.89481240,11.95061110,0.11
2026-06-21 22:00:17.396,-0.008,-0.007,0.989,-39.7,5.6,5.5,0.2,-0.2,0.1,57.89481240,11.95061100,0.11
2026-06-21 22:00:17.441,-0.008,-0.007,0.988,-39.6,5.6,5.5,0.2,-0.2,0.0,57.89481240,11.95061100,0.11
2026-06-21 22:00:17.486,-0.008,-0.007,0.988,-39.6,5.7,5.6,0.2,-0.2,0.1,57.89481240,11.95061100,0.11
2026-06-21 22:00:17.516,-0.008,-0.007,0.989,-39.6,5.7,5.6,0.2,-0.2,0.1,57.89481240,11.95061110,0.11
2026-06-21 22:00:17.561,-0.008,-0.007,0.989,-39.6,5.8,5.6,0.2,-0.2,0.0,57.89481240,11.95061100,0.11
2026-06-21 22:00:17.591,-0.007,-0.007,0.989,-39.7,5.8,5.6,0.2,-0.3,0.1,57.89481250,11.95061110,0.11
2026-06-21 22:00:17.636,-0.008,-0.007,0.988,-39.6,5.7,5.5,0.2,-0.2,0.1,57.89481250,11.95061100,0.11
2026-06-21 22:00:17.681,-0.007,-0.007,0.988,-39.7,5.7,5.4,0.2,-0.3,0.1,57.89481240,11.95061110,0.11
2026-06-21 22:00:17.710,-0.008,-0.007,0.988,-39.8,5.7,5.4,0.2,-0.2,0.2,57.89481250,11.95061110,0.11
2026-06-21 22:00:17.757,-0.007,-0.007,0.988,-39.7,5.7,5.5,0.2,-0.3,0.0,57.89481250,11.95061110,0.11
2026-06-21 22:00:17.801,-0.007,-0.007,0.989,-39.7,5.8,5.4,0.2,-0.3,0.3,57.89481230,11.95061120,0.11
2026-06-21 22:00:17.831,-0.008,-0.007,0.989,-39.6,5.8,5.5,0.2,-0.2,0.1,57.89481230,11.95061120,0.11
2026-06-21 22:00:17.876,-0.007,-0.007,0.989,-39.6,5.7,5.5,0.2,-0.3,0.1,57.89481240,11.95061120,0.11
2026-06-21 22:00:17.921,-0.008,-0.007,0.989,-39.6,5.6,5.5,0.2,-0.2,0.1,57.89481250,11.95061120,0.11
2026-06-21 22:00:17.981,-0.007,-0.007,0.989,-39.7,5.6,5.5,0.2,-0.3,0.1,57.89481250,11.95061120,0.11
2026-06-21 22:00:17.996,-0.008,-0.007,0.989,-39.7,5.5,5.5,0.2,-0.2,0.2,57.89481250,11.95061110,0.11
2026-06-21 22:00:18.042,-0.008,-0.007,0.989,-39.7,5.6,5.5,0.2,-0.2,0.1,57.89481260,11.95061130,0.11
2026-06-21 22:00:18.087,-0.008,-0.007,0.989,-39.7,5.6,5.5,0.2,-0.2,0.2,57.89481250,11.95061120,0.11
2026-06-21 22:00:18.117,-0.008,-0.007,0.989,-39.7,5.5,5.5,0.2,-0.2,0.2,57.89481250,11.95061130,0.11
2026-06-21 22:00:18.162,-0.008,-0.007,0.989,-39.8,5.6,5.5,0.2,-0.2,0.2,57.89481250,11.95061140,0.11
2026-06-21 22:00:18.207,-0.008,-0.007,0.989,-39.8,5.5,5.6,0.2,-0.2,0.2,57.89481260,11.95061150,0.11
2026-06-21 22:00:18.252,-0.008,-0.007,0.989,-39.7,5.5,5.6,0.2,-0.2,0.0,57.89481260,11.95061150,0.11
2026-06-21 22:00:18.298,-0.008,-0.007,0.988,-39.7,5.6,5.6,0.2,-0.2,0.1,57.89481260,11.95061140,0.11
2026-06-21 22:00:18.329,-0.008,-0.007,0.988,-39.7,5.6,5.6,0.2,-0.2,0.0,57.89481260,11.95061150,0.11
2026-06-21 22:00:18.358,-0.008,-0.007,0.988,-39.6,5.6,5.5,0.2,-0.2,0.0,57.89481260,11.95061150,0.11
2026-06-21 22:00:18.402,-0.008,-0.007,0.989,-39.8,5.7,5.5,0.2,-0.2,0.2,57.89481260,11.95061160,0.11
2026-06-21 22:00:18.446,-0.008,-0.007,0.989,-39.8,5.7,5.3,0.2,-0.2,0.3,57.89481250,11.95061170,0.11
2026-06-21 22:00:18.476,-0.008,-0.007,0.989,-39.7,5.7,5.3,0.2,-0.2,0.1,57.89481260,11.95061170,0.11
2026-06-21 22:00:18.521,-0.008,-0.007,0.989,-39.7,5.7,5.3,0.2,-0.2,0.2,57.89481260,11.95061160,0.11
2026-06-21 22:00:18.566,-0.008,-0.007,0.989,-39.6,5.6,5.3,0.2,-0.2,0.2,57.89481260,11.95061160,0.11
2026-06-21 22:00:18.596,-0.008,-0.007,0.989,-39.7,5.7,5.4,0.2,-0.2,0.2,57.89481260,11.95061180,0.11
2026-06-21 22:00:18.641,-0.007,-0.007,0.989,-39.7,5.7,5.5,0.2,-0.3,0.2,57.89481260,11.95061190,0.11
2026-06-21 22:00:18.686,-0.008,-0.007,0.988,-39.7,5.8,5.4,0.2,-0.2,0.2,57.89481260,11.95061190,0.11
2026-06-21 22:00:18.716,-0.007,-0.007,0.988,-39.7,5.8,5.4,0.2,-0.3,0.1,57.89481260,11.95061190,0.11
2026-06-21 22:00:18.762,-0.008,-0.007,0.988,-39.7,5.8,5.3,0.2,-0.2,0.1,57.89481260,11.95061200,0.11
2026-06-21 22:00:18.791,-0.008,-0.007,0.988,-39.7,5.8,5.4,0.2,-0.2,0.1,57.89481260,11.95061200,0.11
2026-06-21 22:00:18.836,-0.008,-0.007,0.988,-39.7,5.7,5.4,0.2,-0.2,0.2,57.89481260,11.95061200,0.11
2026-06-21 22:00:18.881,-0.008,-0.007,0.988,-39.7,5.7,5.4,0.2,-0.2,0.2,57.89481260,11.95061210,0.11
2026-06-21 22:00:18.927,-0.008,-0.007,0.989,-39.7,5.7,5.5,0.2,-0.2,0.1,57.89481260,11.95061210,0.11
2026-06-21 22:00:18.971,-0.008,-0.007,0.989,-39.6,5.8,5.4,0.2,-0.2,0.1,57.89481260,11.95061210,0.11
2026-06-21 22:00:19.000,-0.008,-0.007,0.989,-39.6,5.7,5.5,0.2,-0.2,0.1,57.89481260,11.95061220,0.11
2026-06-21 22:00:19.046,-0.008,-0.007,0.989,-39.6,5.7,5.5,0.2,-0.2,0.1,57.89481260,11.95061240,0.11
2026-06-21 22:00:19.076,-0.008,-0.007,0.989,-39.7,5.7,5.5,0.2,-0.2,0.2,57.89481260,11.95061230,0.11
2026-06-21 22:00:19.121,-0.008,-0.007,0.989,-39.7,5.5,5.5,0.2,-0.2,0.2,57.89481270,11.95061220,0.11
2026-06-21 22:00:19.169,-0.007,-0.007,0.989,-39.7,5.6,5.4,0.2,-0.3,0.2,57.89481270,11.95061230,0.11
2026-06-21 22:00:19.197,-0.008,-0.007,0.988,-39.7,5.6,5.4,0.2,-0.2,0.1,57.89481270,11.95061240,0.11
2026-06-21 22:00:19.242,-0.007,-0.007,0.989,-39.6,5.6,5.5,0.2,-0.3,0.1,57.89481270,11.95061250,0.11
2026-06-21 22:00:19.272,-0.008,-0.007,0.988,-39.6,5.7,5.5,0.2,-0.2,0.2,57.89481270,11.95061250,0.11
2026-06-21 22:00:19.317,-0.007,-0.007,0.988,-39.6,5.7,5.5,0.2,-0.3,0.2,57.89481270,11.95061250,0.11
2026-06-21 22:00:19.362,-0.007,-0.007,0.988,-39.6,5.7,5.5,0.2,-0.3,0.1,57.89481270,11.95061260,0.11
2026-06-21 22:00:19.407,-0.007,-0.007,0.988,-39.7,5.8,5.4,0.2,-0.3,0.2,57.89481270,11.95061260,0.11
2026-06-21 22:00:19.439,-0.008,-0.007,0.988,-39.7,5.8,5.4,0.2,-0.2,0.1,57.89481270,11.95061270,0.11
2026-06-21 22:00:19.481,-0.007,-0.007,0.988,-39.7,5.8,5.5,0.2,-0.3,0.2,57.89481260,11.95061280,0.11
2026-06-21 22:00:19.526,-0.008,-0.007,0.988,-39.7,5.8,5.5,0.2,-0.2,0.2,57.89481260,11.95061280,0.11
2026-06-21 22:00:19.557,-0.008,-0.007,0.988,-39.8,5.8,5.5,0.2,-0.2,0.2,57.89481260,11.95061300,0.11
2026-06-21 22:00:19.601,-0.007,-0.007,0.988,-39.7,5.8,5.5,0.2,-0.3,0.3,57.89481280,11.95061290,0.11
2026-06-21 22:00:19.646,-0.007,-0.007,0.988,-39.6,5.8,5.5,0.2,-0.3,0.1,57.89481280,11.95061300,0.11
2026-06-21 22:00:19.676,-0.008,-0.007,0.988,-39.7,5.7,5.4,0.2,-0.2,0.2,57.89481270,11.95061300,0.11
2026-06-21 22:00:19.721,-0.008,-0.007,0.988,-39.6,5.6,5.5,0.2,-0.2,0.2,57.89481280,11.95061310,0.11
2026-06-21 22:00:19.751,-0.007,-0.007,0.988,-39.6,5.7,5.5,0.2,-0.3,0.0,57.89481280,11.95061310,0.11
2026-06-21 22:00:19.796,-0.008,-0.007,0.988,-39.7,5.7,5.5,0.2,-0.2,0.1,57.89481280,11.95061330,0.11
2026-06-21 22:00:19.842,-0.008,-0.007,0.988,-39.7,5.8,5.5,0.2,-0.2,0.1,57.89481280,11.95061330,0.11
2026-06-21 22:00:19.888,-0.008,-0.007,0.989,-39.8,5.8,5.5,0.2,-0.2,0.2,57.89481270,11.95061330,0.11
2026-06-21 22:00:19.919,-0.008,-0.007,0.989,-39.8,5.8,5.3,0.2,-0.2,0.2,57.89481280,11.95061330,0.11
2026-06-21 22:00:19.977,-0.007,-0.007,0.989,-39.7,5.7,5.5,0.2,-0.3,0.2,57.89481290,11.95061330,0.11
2026-06-21 22:00:20.039,-0.008,-0.007,0.989,-39.5,5.7,5.4,0.2,-0.2,0.1,57.89481290,11.95061330,0.11
2026-06-21 22:00:20.082,-0.008,-0.007,0.988,-39.5,5.7,5.4,0.2,-0.2,0.1,57.89481290,11.95061350,0.11
2026-06-21 22:00:20.127,-0.008,-0.007,0.988,-39.5,5.7,5.4,0.2,-0.2,0.0,57.89481290,11.95061350,0.11
2026-06-21 22:00:20.155,-0.008,-0.007,0.988,-39.5,5.6,5.4,0.2,-0.2,0.1,57.89481290,11.95061350,0.11
2026-06-21 22:00:20.201,-0.008,-0.007,0.988,-39.6,5.6,5.4,0.2,-0.2,0.2,57.89481290,11.95061350,0.11
2026-06-21 22:00:20.245,-0.008,-0.007,0.988,-39.6,5.5,5.4,0.2,-0.2,0.2,57.89481300,11.95061350,0.11
2026-06-21 22:00:20.276,-0.008,-0.007,0.988,-39.7,5.6,5.4,0.2,-0.2,0.1,57.89481300,11.95061360,0.11
2026-06-21 22:00:20.321,-0.008,-0.007,0.989,-39.7,5.6,5.4,0.2,-0.2,0.2,57.89481300,11.95061380,0.11
2026-06-21 22:00:20.367,-0.007,-0.007,0.989,-39.7,5.7,5.4,0.2,-0.3,0.0,57.89481290,11.95061390,0.11
2026-06-21 22:00:20.396,-0.008,-0.007,0.988,-39.6,5.7,5.4,0.2,-0.2,0.2,57.89481300,11.95061380,0.11
2026-06-21 22:00:20.442,-0.007,-0.007,0.988,-39.7,5.9,5.4,0.2,-0.3,0.1,57.89481290,11.95061390,0.11
2026-06-21 22:00:20.486,-0.008,-0.007,0.988,-39.6,5.8,5.5,0.2,-0.2,0.1,57.89481300,11.95061400,0.11
2026-06-21 22:00:20.517,-0.008,-0.007,0.988,-39.6,5.8,5.5,0.2,-0.2,0.1,57.89481300,11.95061410,0.11
2026-06-21 22:00:20.561,-0.008,-0.007,0.988,-39.6,5.8,5.5,0.2,-0.2,0.1,57.89481300,11.95061410,0.11
2026-06-21 22:00:20.606,-0.007,-0.007,0.988,-39.6,5.8,5.5,0.2,-0.3,0.1,57.89481300,11.95061420,0.11
2026-06-21 22:00:20.638,-0.008,-0.007,0.988,-39.6,5.8,5.5,0.2,-0.2,0.1,57.89481300,11.95061420,0.11
2026-06-21 22:00:20.682,-0.008,-0.007,0.988,-39.7,5.7,5.5,0.2,-0.2,0.1,57.89481300,11.95061430,0.11
2026-06-21 22:00:20.726,-0.008,-0.007,0.989,-39.7,5.7,5.5,0.2,-0.2,0.1,57.89481300,11.95061430,0.11
2026-06-21 22:00:20.757,-0.008,-0.007,0.988,-39.7,5.6,5.5,0.2,-0.2,0.2,57.89481300,11.95061430,0.11
2026-06-21 22:00:20.817,-0.007,-0.007,0.989,-39.8,5.7,5.5,0.2,-0.3,0.1,57.89481300,11.95061440,0.11
2026-06-21 22:00:20.847,-0.008,-0.007,0.989,-39.7,5.6,5.5,0.2,-0.2,0.0,57.89481300,11.95061450,0.11
2026-06-21 22:00:20.876,-0.007,-0.007,0.988,-39.8,5.6,5.5,0.2,-0.3,0.2,57.89481310,11.95061460,0.11
2026-06-21 22:00:20.922,-0.008,-0.007,0.989,-39.7,5.7,5.3,0.2,-0.2,0.1,57.89481310,11.95061460,0.11
2026-06-21 22:00:20.982,-0.008,-0.007,0.989,-39.8,5.8,5.4,0.2,-0.2,0.2,57.89481300,11.95061470,0.11
2026-06-21 22:00:20.997,-0.008,-0.007,0.989,-39.7,5.8,5.4,0.2,-0.2,0.1,57.89481310,11.95061480,0.11
2026-06-21 22:00:21.041,-0.008,-0.007,0.989,-39.6,5.8,5.4,0.2,-0.2,0.1,57.89481310,11.95061490,0.11
2026-06-21 22:00:21.086,-0.008,-0.007,0.989,-39.7,5.8,5.4,0.2,-0.2,0.1,57.89481310,11.95061490,0.11
2026-06-21 22:00:21.116,-0.008,-0.007,0.989,-39.7,5.8,5.4,0.2,-0.2,0.2,57.89481300,11.95061490,0.11
2026-06-21 22:00:21.162,-0.008,-0.007,0.989,-39.7,5.8,5.5,0.2,-0.2,0.0,57.89481310,11.95061500,0.11
2026-06-21 22:00:21.206,-0.008,-0.007,0.989,-39.8,5.7,5.5,0.2,-0.2,0.0,57.89481310,11.95061510,0.11
2026-06-21 22:00:21.236,-0.008,-0.007,0.989,-39.7,5.6,5.5,0.2,-0.2,0.1,57.89481310,11.95061510,0.11
2026-06-21 22:00:21.281,-0.008,-0.007,0.989,-39.7,5.6,5.5,0.2,-0.2,0.2,57.89481320,11.95061510,0.11
2026-06-21 22:00:21.327,-0.008,-0.007,0.989,-39.6,5.7,5.5,0.2,-0.2,0.1,57.89481310,11.95061530,0.11
2026-06-21 22:00:21.356,-0.008,-0.008,0.988,-39.5,5.7,5.4,0.1,-0.2,0.1,57.89481310,11.95061530,0.11
2026-06-21 22:00:21.402,-0.008,-0.007,0.988,-39.6,5.8,5.3,0.2,-0.2,0.1,57.89481310,11.95061540,0.11
2026-06-21 22:00:21.446,-0.007,-0.007,0.988,-39.6,5.7,5.3,0.2,-0.3,0.1,57.89481310,11.95061550,0.11
2026-06-21 22:00:21.477,-0.008,-0.007,0.988,-39.6,5.7,5.3,0.2,-0.2,0.2,57.89481300,11.95061550,0.11
2026-06-21 22:00:21.521,-0.008,-0.007,0.988,-39.6,5.8,5.4,0.2,-0.2,0.1,57.89481310,11.95061560,0.11
2026-06-21 22:00:21.567,-0.007,-0.007,0.988,-39.6,5.8,5.4,0.2,-0.3,0.2,57.89481310,11.95061560,0.11
2026-06-21 22:00:21.596,-0.008,-0.007,0.988,-39.6,5.7,5.4,0.2,-0.2,0.1,57.89481310,11.95061560,0.11
2026-06-21 22:00:21.641,-0.008,-0.007,0.988,-39.6,5.7,5.4,0.2,-0.2,0.1,57.89481310,11.95061570,0.11
2026-06-21 22:00:21.686,-0.008,-0.007,0.988,-39.7,5.7,5.5,0.2,-0.2,0.2,57.89481310,11.95061580,0.11
2026-06-21 22:00:21.716,-0.008,-0.007,0.988,-39.7,5.7,5.5,0.2,-0.2,0.1,57.89481310,11.95061590,0.11
2026-06-21 22:00:21.762,-0.008,-0.007,0.989,-39.6,5.7,5.5,0.2,-0.2,0.1,57.89481310,11.95061590,0.11
2026-06-21 22:00:21.807,-0.008,-0.007,0.989,-39.7,5.8,5.5,0.2,-0.2,0.2,57.89481310,11.95061600,0.11
2026-06-21 22:00:21.838,-0.008,-0.007,0.989,-39.7,5.8,5.5,0.2,-0.2,0.1,57.89481300,11.95061600,0.11
2026-06-21 22:00:21.881,-0.008,-0.007,0.989,-39.7,5.8,5.6,0.2,-0.2,0.2,57.89481310,11.95061610,0.11
2026-06-21 22:00:21.927,-0.008,-0.007,0.988,-39.8,5.7,5.5,0.2,-0.2,0.2,57.89481310,11.95061620,0.11
2026-06-21 22:00:21.972,-0.008,-0.007,0.988,-39.8,5.6,5.4,0.2,-0.2,0.0,57.89481310,11.95061630,0.11
2026-06-21 22:00:22.047,-0.008,-0.007,0.988,-39.9,5.6,5.4,0.2,-0.2,0.1,57.89481310,11.95061630,0.11
2026-06-21 22:00:22.092,-0.008,-0.007,0.989,-39.7,5.6,5.5,0.2,-0.2,0.1,57.89481310,11.95061650,0.11
2026-06-21 22:00:22.138,-0.008,-0.007,0.988,-39.6,5.6,5.6,0.2,-0.2,0.3,57.89481300,11.95061650,0.11
2026-06-21 22:00:22.169,-0.007,-0.007,0.988,-39.7,5.6,5.6,0.2,-0.3,0.1,57.89481300,11.95061660,0.11
2026-06-21 22:00:22.199,-0.008,-0.007,0.989,-39.7,5.7,5.5,0.2,-0.2,0.1,57.89481300,11.95061660,0.11
2026-06-21 22:00:22.242,-0.008,-0.007,0.989,-39.7,5.6,5.5,0.2,-0.2,0.1,57.89481300,11.95061670,0.11
2026-06-21 22:00:22.287,-0.008,-0.007,0.989,-39.7,5.7,5.4,0.2,-0.2,0.1,57.89481300,11.95061680,0.11
2026-06-21 22:00:22.317,-0.008,-0.007,0.989,-39.7,5.8,5.4,0.2,-0.2,0.1,57.89481300,11.95061680,0.11
2026-06-21 22:00:22.362,-0.007,-0.007,0.988,-39.7,5.8,5.4,0.2,-0.3,0.1,57.89481300,11.95061680,0.11
2026-06-21 22:00:22.407,-0.008,-0.007,0.989,-39.8,5.9,5.4,0.2,-0.2,0.3,57.89481300,11.95061710,0.11
2026-06-21 22:00:22.451,-0.007,-0.007,0.989,-39.8,5.8,5.4,0.2,-0.3,0.2,57.89481300,11.95061720,0.11
2026-06-21 22:00:22.481,-0.008,-0.007,0.989,-39.8,5.7,5.4,0.2,-0.2,0.1,57.89481300,11.95061720,0.11
2026-06-21 22:00:22.526,-0.007,-0.007,0.989,-39.9,5.6,5.4,0.2,-0.3,0.2,57.89481300,11.95061710,0.11
2026-06-21 22:00:22.556,-0.007,-0.007,0.989,-39.8,5.6,5.4,0.2,-0.3,0.1,57.89481300,11.95061720,0.11
2026-06-21 22:00:22.601,-0.007,-0.007,0.989,-39.7,5.6,5.5,0.2,-0.3,0.1,57.89481290,11.95061730,0.11
2026-06-21 22:00:22.645,-0.007,-0.007,0.989,-39.7,5.6,5.5,0.2,-0.3,0.1,57.89481290,11.95061740,0.11
2026-06-21 22:00:22.676,-0.008,-0.007,0.989,-39.7,5.7,5.5,0.2,-0.2,0.0,57.89481290,11.95061740,0.11
2026-06-21 22:00:22.721,-0.008,-0.007,0.988,-39.7,5.6,5.5,0.2,-0.2,0.1,57.89481300,11.95061740,0.11
2026-06-21 22:00:22.752,-0.008,-0.007,0.988,-39.8,5.7,5.5,0.2,-0.2,0.1,57.89481290,11.95061750,0.11
2026-06-21 22:00:22.799,-0.008,-0.007,0.988,-39.8,5.7,5.4,0.2,-0.2,0.0,57.89481290,11.95061760,0.11
2026-06-21 22:00:22.842,-0.008,-0.007,0.988,-39.8,5.7,5.4,0.2,-0.2,0.1,57.89481290,11.95061780,0.11
2026-06-21 22:00:22.887,-0.008,-0.007,0.988,-39.8,5.8,5.4,0.2,-0.2,0.1,57.89481290,11.95061780,0.11
2026-06-21 22:00:22.918,-0.008,-0.007,0.989,-39.8,5.7,5.4,0.2,-0.2,0.1,57.89481290,11.95061790,0.11
2026-06-21 22:00:22.979,-0.008,-0.007,0.988,-39.8,5.7,5.5,0.2,-0.2,0.1,57.89481290,11.95061790,0.11
2026-06-21 22:00:23.009,-0.008,-0.007,0.988,-39.7,5.7,5.6,0.2,-0.2,0.2,57.89481280,11.95061800,0.11
2026-06-21 22:00:23.039,-0.007,-0.007,0.988,-39.7,5.7,5.6,0.2,-0.3,0.1,57.89481280,11.95061810,0.11
2026-06-21 22:00:23.083,-0.008,-0.007,0.988,-39.7,5.7,5.5,0.2,-0.2,0.2,57.89481270,11.95061810,0.11
2026-06-21 22:00:23.126,-0.008,-0.007,0.988,-39.7,5.8,5.5,0.2,-0.2,0.2,57.89481280,11.95061810,0.11
2026-06-21 22:00:23.157,-0.008,-0.007,0.988,-39.7,5.8,5.5,0.2,-0.2,0.2,57.89481270,11.95061830,0.11
2026-06-21 22:00:23.202,-0.008,-0.007,0.989,-39.8,5.8,5.5,0.2,-0.2,0.3,57.89481270,11.95061840,0.11
2026-06-21 22:00:23.232,-0.007,-0.007,0.989,-39.9,5.8,5.5,0.2,-0.3,0.0,57.89481270,11.95061840,0.11
2026-06-21 22:00:23.277,-0.008,-0.007,0.989,-39.8,5.7,5.4,0.2,-0.2,0.3,57.89481280,11.95061840,0.11
2026-06-21 22:00:23.322,-0.008,-0.007,0.989,-39.8,5.7,5.4,0.2,-0.2,0.2,57.89481280,11.95061860,0.11
2026-06-21 22:00:23.367,-0.008,-0.007,0.989,-39.7,5.7,5.3,0.2,-0.2,0.2,57.89481260,11.95061870,0.11
2026-06-21 22:00:23.396,-0.008,-0.007,0.989,-39.6,5.6,5.3,0.2,-0.2,0.1,57.89481260,11.95061880,0.11
2026-06-21 22:00:23.443,-0.008,-0.007,0.989,-39.6,5.6,5.4,0.2,-0.2,0.2,57.89481270,11.95061870,0.11
2026-06-21 22:00:23.487,-0.008,-0.007,0.989,-39.7,5.6,5.4,0.2,-0.2,0.0,57.89481270,11.95061880,0.11
2026-06-21 22:00:23.516,-0.008,-0.007,0.989,-39.7,5.7,5.5,0.2,-0.2,0.0,57.89481270,11.95061890,0.11
2026-06-21 22:00:23.562,-0.008,-0.007,0.989,-39.7,5.7,5.5,0.2,-0.2,0.1,57.89481270,11.95061890,0.11
2026-06-21 22:00:23.606,-0.008,-0.007,0.989,-39.7,5.7,5.4,0.2,-0.2,0.1,57.89481260,11.95061900,0.11
2026-06-21 22:00:23.636,-0.008,-0.007,0.988,-39.6,5.7,5.4,0.2,-0.2,0.0,57.89481270,11.95061910,0.11
2026-06-21 22:00:23.682,-0.008,-0.007,0.988,-39.7,5.7,5.5,0.2,-0.2,0.2,57.89481260,11.95061900,0.11
2026-06-21 22:00:23.711,-0.008,-0.007,0.988,-39.7,5.8,5.5,0.2,-0.2,0.1,57.89481260,11.95061910,0.11
2026-06-21 22:00:23.757,-0.008,-0.007,0.988,-39.8,5.8,5.5,0.2,-0.2,0.2,57.89481260,11.95061930,0.11
2026-06-21 22:00:23.802,-0.008,-0.007,0.988,-39.8,5.9,5.6,0.2,-0.2,0.1,57.89481260,11.95061940,0.11
2026-06-21 22:00:23.848,-0.008,-0.007,0.988,-39.8,5.9,5.6,0.2,-0.2,0.0,57.89481260,11.95061940,0.11
2026-06-21 22:00:23.877,-0.008,-0.007,0.988,-39.7,5.8,5.5,0.2,-0.2,0.1,57.89481260,11.95061950,0.11
2026-06-21 22:00:23.922,-0.008,-0.007,0.989,-39.7,5.7,5.5,0.2,-0.2,0.2,57.89481260,11.95061940,0.11
2026-06-21 22:00:23.982,-0.008,-0.007,0.989,-39.7,5.7,5.5,0.2,-0.2,0.1,57.89481260,11.95061960,0.11
2026-06-21 22:00:24.042,-0.008,-0.007,0.988,-39.7,5.7,5.6,0.2,-0.2,0.2,57.89481250,11.95061970,0.11
2026-06-21 22:00:24.088,-0.008,-0.007,0.988,-39.7,5.9,5.5,0.2,-0.2,0.2,57.89481250,11.95061980,0.11
2026-06-21 22:00:24.116,-0.008,-0.007,0.988,-39.6,5.8,5.4,0.2,-0.2,0.1,57.89481250,11.95061980,0.11
2026-06-21 22:00:24.161,-0.008,-0.007,0.988,-39.6,5.8,5.4,0.2,-0.2,0.1,57.89481250,11.95061990,0.11
2026-06-21 22:00:24.192,-0.008,-0.007,0.989,-39.6,5.7,5.4,0.2,-0.2,0.2,57.89481240,11.95061990,0.11
2026-06-21 22:00:24.237,-0.007,-0.007,0.989,-39.6,5.6,5.5,0.2,-0.3,0.1,57.89481240,11.95062000,0.11
2026-06-21 22:00:24.284,-0.008,-0.007,0.989,-39.6,5.6,5.6,0.2,-0.2,0.1,57.89481240,11.95062010,0.11
2026-06-21 22:00:24.327,-0.008,-0.007,0.989,-39.6,5.6,5.5,0.2,-0.2,0.1,57.89481240,11.95062010,0.11
2026-06-21 22:00:24.356,-0.007,-0.007,0.989,-39.6,5.6,5.6,0.2,-0.3,0.2,57.89481240,11.95062030,0.11
2026-06-21 22:00:24.401,-0.008,-0.007,0.989,-39.7,5.6,5.6,0.2,-0.2,0.2,57.89481250,11.95062030,0.11
2026-06-21 22:00:24.447,-0.007,-0.007,0.988,-39.7,5.6,5.6,0.2,-0.3,0.1,57.89481240,11.95062040,0.11
2026-06-21 22:00:24.476,-0.008,-0.007,0.988,-39.6,5.6,5.5,0.2,-0.2,0.1,57.89481240,11.95062040,0.11
2026-06-21 22:00:24.523,-0.007,-0.007,0.988,-39.7,5.6,5.5,0.2,-0.3,0.1,57.89481250,11.95062040,0.11
2026-06-21 22:00:24.552,-0.008,-0.007,0.989,-39.7,5.7,5.4,0.2,-0.2,0.1,57.89481240,11.95062040,0.11
2026-06-21 22:00:24.596,-0.008,-0.007,0.988,-39.7,5.7,5.3,0.2,-0.2,0.0,57.89481250,11.95062050,0.11
2026-06-21 22:00:24.657,-0.007,-0.007,0.989,-39.7,5.7,5.5,0.2,-0.3,0.1,57.89481240,11.95062060,0.11
2026-06-21 22:00:24.671,-0.008,-0.007,0.989,-39.7,5.7,5.5,0.2,-0.2,0.0,57.89481240,11.95062070,0.11
2026-06-21 22:00:24.732,-0.008,-0.007,0.988,-39.7,5.6,5.6,0.2,-0.2,0.1,57.89481240,11.95062080,0.11
2026-06-21 22:00:24.762,-0.008,-0.007,0.989,-39.7,5.6,5.6,0.2,-0.2,0.0,57.89481240,11.95062080,0.11
2026-06-21 22:00:24.808,-0.008,-0.007,0.988,-39.7,5.7,5.5,0.2,-0.2,0.1,57.89481250,11.95062080,0.11
2026-06-21 22:00:24.837,-0.008,-0.007,0.988,-39.6,5.7,5.5,0.2,-0.2,0.1,57.89481240,11.95062090,0.11
2026-06-21 22:00:24.884,-0.008,-0.007,0.989,-39.5,5.8,5.5,0.2,-0.2,0.1,57.89481240,11.95062110,0.11
2026-06-21 22:00:24.914,-0.008,-0.007,0.988,-39.6,5.8,5.6,0.2,-0.2,0.2,57.89481240,11.95062110,0.11
2026-06-21 22:00:24.972,-0.008,-0.007,0.989,-39.7,5.8,5.6,0.2,-0.2,0.2,57.89481240,11.95062100,0.11
2026-06-21 22:00:25.004,-0.008,-0.007,0.989,-39.7,5.8,5.7,0.2,-0.2,0.2,57.89481250,11.95062100,0.11
2026-06-21 22:00:25.048,-0.008,-0.007,0.989,-39.8,5.7,5.6,0.2,-0.2,0.1,57.89481250,11.95062110,0.11
2026-06-21 22:00:25.076,-0.008,-0.007,0.989,-39.7,5.8,5.6,0.2,-0.2,0.2,57.89481250,11.95062130,0.11
2026-06-21 22:00:25.122,-0.008,-0.007,0.989,-39.7,5.7,5.5,0.2,-0.2,0.1,57.89481250,11.95062130,0.11
2026-06-21 22:00:25.152,-0.008,-0.007,0.989,-39.6,5.8,5.5,0.2,-0.2,0.1,57.89481250,11.95062140,0.11
2026-06-21 22:00:25.196,-0.008,-0.007,0.989,-39.6,5.8,5.5,0.2,-0.2,0.2,57.89481240,11.95062140,0.11
2026-06-21 22:00:25.242,-0.007,-0.007,0.988,-39.7,5.8,5.5,0.2,-0.3,0.1,57.89481240,11.95062140,0.11
2026-06-21 22:00:25.288,-0.008,-0.007,0.988,-39.7,5.8,5.5,0.2,-0.2,0.0,57.89481250,11.95062150,0.11
2026-06-21 22:00:25.319,-0.007,-0.007,0.988,-39.7,5.8,5.5,0.2,-0.3,0.0,57.89481250,11.95062150,0.11
2026-06-21 22:00:25.364,-0.008,-0.007,0.988,-39.7,5.8,5.4,0.2,-0.2,0.2,57.89481250,11.95062160,0.11
2026-06-21 22:00:25.406,-0.008,-0.007,0.989,-39.6,5.8,5.5,0.2,-0.2,0.0,57.89481250,11.95062160,0.11
2026-06-21 22:00:25.436,-0.008,-0.007,0.989,-39.7,5.8,5.4,0.2,-0.2,0.1,57.89481250,11.95062170,0.11
2026-06-21 22:00:25.481,-0.008,-0.007,0.988,-39.7,5.8,5.4,0.2,-0.2,0.1,57.89481250,11.95062170,0.11
2026-06-21 22:00:25.526,-0.007,-0.007,0.988,-39.7,5.8,5.4,0.2,-0.3,0.1,57.89481250,11.95062170,0.11
2026-06-21 22:00:25.556,-0.008,-0.007,0.988,-39.7,5.8,5.3,0.2,-0.2,0.0,57.89481250,11.95062180,0.11
2026-06-21 22:00:25.601,-0.007,-0.007,0.989,-39.7,5.8,5.4,0.2,-0.3,0.1,57.89481260,11.95062180,0.11
2026-06-21 22:00:25.632,-0.008,-0.007,0.989,-39.7,5.9,5.5,0.2,-0.2,0.0,57.89481260,11.95062180,0.11
2026-06-21 22:00:25.676,-0.008,-0.007,0.989,-39.8,5.9,5.5,0.2,-0.2,0.2,57.89481260,11.95062180,0.11
2026-06-21 22:00:25.721,-0.008,-0.007,0.989,-39.8,5.8,5.5,0.2,-0.2,0.2,57.89481260,11.95062180,0.11
2026-06-21 22:00:25.766,-0.008,-0.007,0.988,-39.8,5.7,5.5,0.2,-0.2,0.0,57.89481260,11.95062180,0.11
2026-06-21 22:00:25.796,-0.008,-0.008,0.989,-39.7,5.6,5.5,0.1,-0.2,0.1,57.89481270,11.95062190,0.11
2026-06-21 22:00:25.842,-0.008,-0.008,0.988,-39.6,5.6,5.5,0.1,-0.2,0.2,57.89481270,11.95062180,0.11
2026-06-21 22:00:25.886,-0.008,-0.008,0.988,-39.6,5.7,5.6,0.1,-0.2,0.1,57.89481280,11.95062180,0.11
2026-06-21 22:00:25.932,-0.008,-0.008,0.988,-39.7,5.7,5.5,0.1,-0.2,0.1,57.89481280,11.95062190,0.11
2026-06-21 22:00:25.990,-0.008,-0.007,0.988,-39.8,5.8,5.5,0.2,-0.2,0.1,57.89481280,11.95062190,0.11
2026-06-21 22:00:26.036,-0.008,-0.007,0.989,-39.8,5.8,5.6,0.2,-0.2,0.1,57.89481280,11.95062200,0.11
2026-06-21 22:00:26.082,-0.008,-0.007,0.989,-39.8,5.8,5.6,0.2,-0.2,0.2,57.89481290,11.95062200,0.11
2026-06-21 22:00:26.111,-0.008,-0.007,0.989,-39.7,5.7,5.6,0.2,-0.2,0.1,57.89481300,11.95062200,0.11
2026-06-21 22:00:26.156,-0.008,-0.007,0.989,-39.7,5.7,5.4,0.2,-0.2,0.1,57.89481300,11.95062200,0.11
2026-06-21 22:00:26.201,-0.008,-0.007,0.989,-39.6,5.7,5.4,0.2,-0.2,0.1,57.89481300,11.95062220,0.11
2026-06-21 22:00:26.246,-0.007,-0.007,0.988,-39.6,5.6,5.4,0.2,-0.3,0.3,57.89481310,11.95062220,0.11
2026-06-21 22:00:26.277,-0.007,-0.007,0.988,-39.7,5.6,5.4,0.2,-0.3,0.1,57.89481310,11.95062220,0.11
2026-06-21 22:00:26.322,-0.008,-0.007,0.988,-39.6,5.6,5.5,0.2,-0.2,0.1,57.89481300,11.95062220,0.11
2026-06-21 22:00:26.367,-0.008,-0.007,0.988,-39.5,5.6,5.4,0.2,-0.2,0.2,57.89481310,11.95062210,0.11
2026-06-21 22:00:26.397,-0.008,-0.007,0.989,-39.5,5.6,5.5,0.2,-0.2,0.2,57.89481310,11.95062210,0.11
2026-06-21 22:00:26.442,-0.008,-0.007,0.989,-39.5,5.6,5.4,0.2,-0.2,0.2,57.89481320,11.95062200,0.11
2026-06-21 22:00:26.487,-0.008,-0.007,0.989,-39.5,5.7,5.4,0.2,-0.2,0.0,57.89481320,11.95062200,0.11
2026-06-21 22:00:26.517,-0.008,-0.007,0.989,-39.6,5.7,5.4,0.2,-0.2,0.2,57.89481320,11.95062220,0.11
2026-06-21 22:00:26.562,-0.008,-0.007,0.988,-39.7,5.7,5.4,0.2,-0.2,0.3,57.89481310,11.95062230,0.11
2026-06-21 22:00:26.606,-0.008,-0.007,0.988,-39.8,5.6,5.5,0.2,-0.2,0.1,57.89481320,11.95062220,0.11
2026-06-21 22:00:26.636,-0.008,-0.007,0.988,-39.8,5.7,5.5,0.2,-0.2,0.1,57.89481320,11.95062220,0.11
2026-06-21 22:00:26.681,-0.008,-0.007,0.988,-39.7,5.7,5.5,0.2,-0.2,0.1,57.89481330,11.95062220,0.11
2026-06-21 22:00:26.726,-0.007,-0.007,0.988,-39.7,5.7,5.4,0.2,-0.3,0.1,57.89481330,11.95062230,0.11
2026-06-21 22:00:26.757,-0.008,-0.007,0.988,-39.7,5.8,5.4,0.2,-0.2,0.1,57.89481330,11.95062230,0.11
2026-06-21 22:00:26.803,-0.008,-0.007,0.988,-39.6,5.7,5.4,0.2,-0.2,0.1,57.89481340,11.95062230,0.11
2026-06-21 22:00:26.847,-0.008,-0.007,0.989,-39.6,5.7,5.4,0.2,-0.2,0.1,57.89481340,11.95062230,0.11
2026-06-21 22:00:26.876,-0.008,-0.007,0.989,-39.5,5.7,5.5,0.2,-0.2,0.2,57.89481330,11.95062230,0.11
2026-06-21 22:00:26.922,-0.008,-0.007,0.988,-39.6,5.7,5.5,0.2,-0.2,0.1,57.89481330,11.95062240,0.11
2026-06-21 22:00:26.982,-0.008,-0.007,0.988,-39.7,5.7,5.6,0.2,-0.2,0.1,57.89481340,11.95062250,0.11
2026-06-21 22:00:26.997,-0.008,-0.007,0.988,-39.7,5.8,5.5,0.2,-0.2,0.1,57.89481340,11.95062240,0.11
2026-06-21 22:00:27.043,-0.008,-0.007,0.988,-39.7,5.7,5.5,0.2,-0.2,0.0,57.89481340,11.95062240,0.11
2026-06-21 22:00:27.088,-0.008,-0.007,0.989,-39.7,5.8,5.5,0.2,-0.2,0.1,57.89481350,11.95062240,0.11
2026-06-21 22:00:27.116,-0.008,-0.007,0.989,-39.7,5.7,5.5,0.2,-0.2,0.1,57.89481350,11.95062250,0.11
2026-06-21 22:00:27.163,-0.008,-0.007,0.989,-39.8,5.7,5.5,0.2,-0.2,0.1,57.89481350,11.95062250,0.11
2026-06-21 22:00:27.208,-0.008,-0.007,0.988,-39.8,5.7,5.5,0.2,-0.2,0.1,57.89481350,11.95062250,0.11
2026-06-21 22:00:27.252,-0.008,-0.007,0.988,-39.7,5.6,5.4,0.2,-0.2,0.1,57.89481350,11.95062260,0.11
2026-06-21 22:00:27.284,-0.008,-0.007,0.988,-39.7,5.7,5.4,0.2,-0.2,0.2,57.89481350,11.95062260,0.11
2026-06-21 22:00:27.328,-0.008,-0.007,0.988,-39.7,5.7,5.3,0.2,-0.2,0.1,57.89481360,11.95062260,0.11
2026-06-21 22:00:27.359,-0.008,-0.007,0.988,-39.7,5.7,5.4,0.2,-0.2,0.1,57.89481360,11.95062260,0.11
2026-06-21 22:00:27.402,-0.008,-0.007,0.988,-39.7,5.8,5.4,0.2,-0.2,0.1,57.89481360,11.95062270,0.11
2026-06-21 22:00:27.448,-0.008,-0.007,0.988,-39.7,5.8,5.5,0.2,-0.2,0.1,57.89481360,11.95062270,0.11
2026-06-21 22:00:27.477,-0.008,-0.007,0.988,-39.7,5.7,5.5,0.2,-0.2,0.1,57.89481360,11.95062280,0.11
2026-06-21 22:00:27.521,-0.008,-0.007,0.988,-39.7,5.7,5.5,0.2,-0.2,0.2,57.89481360,11.95062270,0.11
2026-06-21 22:00:27.566,-0.008,-0.007,0.988,-39.7,5.7,5.5,0.2,-0.2,0.2,57.89481360,11.95062270,0.11
2026-06-21 22:00:27.597,-0.008,-0.007,0.989,-39.7,5.8,5.5,0.2,-0.2,0.0,57.89481360,11.95062280,0.11
2026-06-21 22:00:27.642,-0.008,-0.007,0.988,-39.7,5.9,5.5,0.2,-0.2,0.3,57.89481370,11.95062290,0.11
2026-06-21 22:00:27.672,-0.007,-0.007,0.989,-39.7,5.8,5.5,0.2,-0.3,0.3,57.89481380,11.95062300,0.11
2026-06-21 22:00:27.717,-0.008,-0.007,0.989,-39.7,5.8,5.5,0.2,-0.2,0.0,57.89481370,11.95062300,0.11
2026-06-21 22:00:27.763,-0.007,-0.007,0.988,-39.8,5.8,5.4,0.2,-0.3,0.2,57.89481370,11.95062290,0.11
2026-06-21 22:00:27.809,-0.008,-0.007,0.988,-39.7,5.7,5.5,0.2,-0.2,0.3,57.89481390,11.95062290,0.11
2026-06-21 22:00:27.837,-0.007,-0.007,0.989,-39.7,5.6,5.5,0.2,-0.3,0.2,57.89481380,11.95062290,0.11
2026-06-21 22:00:27.883,-0.008,-0.007,0.989,-39.7,5.6,5.5,0.2,-0.2,0.1,57.89481380,11.95062290,0.11
2026-06-21 22:00:27.914,-0.008,-0.007,0.989,-39.6,5.6,5.5,0.2,-0.2,0.2,57.89481380,11.95062280,0.11
2026-06-21 22:00:27.973,-0.008,-0.007,0.989,-39.6,5.7,5.5,0.2,-0.2,0.2,57.89481380,11.95062300,0.11
2026-06-21 22:00:28.004,-0.008,-0.007,0.988,-39.6,5.7,5.5,0.2,-0.2,0.1,57.89481380,11.95062310,0.11
2026-06-21 22:00:28.035,-0.007,-0.007,0.989,-39.6,5.7,5.5,0.2,-0.3,0.0,57.89481380,11.95062310,0.11
2026-06-21 22:00:28.080,-0.007,-0.007,0.988,-39.7,5.7,5.5,0.2,-0.3,0.1,57.89481380,11.95062310,0.11
2026-06-21 22:00:28.122,-0.007,-0.007,0.988,-39.7,5.7,5.5,0.2,-0.3,0.1,57.89481380,11.95062310,0.11
2026-06-21 22:00:28.152,-0.007,-0.007,0.988,-39.7,5.8,5.5,0.2,-0.3,0.1,57.89481380,11.95062310,0.11
2026-06-21 22:00:28.198,-0.008,-0.007,0.989,-39.7,5.8,5.5,0.2,-0.2,0.1,57.89481390,11.95062310,0.11
2026-06-21 22:00:28.243,-0.008,-0.007,0.989,-39.6,5.8,5.5,0.2,-0.2,0.1,57.89481390,11.95062310,0.11
2026-06-21 22:00:28.289,-0.008,-0.007,0.989,-39.6,5.8,5.6,0.2,-0.2,0.1,57.89481390,11.95062310,0.11
2026-06-21 22:00:28.318,-0.008,-0.007,0.988,-39.6,5.7,5.5,0.2,-0.2,0.1,57.89481400,11.95062300,0.11
2026-06-21 22:00:28.363,-0.008,-0.007,0.988,-39.6,5.7,5.6,0.2,-0.2,0.2,57.89481390,11.95062300,0.11
2026-06-21 22:00:28.408,-0.007,-0.007,0.988,-39.6,5.6,5.4,0.2,-0.3,0.1,57.89481400,11.95062310,0.11
2026-06-21 22:00:28.439,-0.008,-0.007,0.988,-39.6,5.6,5.5,0.2,-0.2,0.1,57.89481400,11.95062310,0.11
2026-06-21 22:00:28.496,-0.007,-0.007,0.989,-39.6,5.4,5.4,0.2,-0.3,0.2,57.89481400,11.95062320,0.11
2026-06-21 22:00:28.542,-0.008,-0.007,0.989,-39.6,5.5,5.4,0.2,-0.2,0.1,57.89481390,11.95062320,0.11
2026-06-21 22:00:28.571,-0.008,-0.007,0.989,-39.6,5.5,5.4,0.2,-0.2,0.1,57.89481390,11.95062320,0.11
2026-06-21 22:00:28.602,-0.007,-0.007,0.989,-39.6,5.6,5.3,0.2,-0.3,0.2,57.89481400,11.95062310,0.11
2026-06-21 22:00:28.632,-0.008,-0.007,0.989,-39.4,5.6,5.4,0.2,-0.2,0.2,57.89481410,11.95062320,0.11
2026-06-21 22:00:28.677,-0.007,-0.008,0.989,-39.5,5.6,5.4,0.1,-0.3,0.1,57.89481400,11.95062330,0.11
2026-06-21 22:00:28.722,-0.008,-0.007,0.989,-39.5,5.6,5.4,0.2,-0.2,0.2,57.89481400,11.95062340,0.11
2026-06-21 22:00:28.752,-0.007,-0.007,0.989,-39.5,5.6,5.5,0.2,-0.3,0.1,57.89481400,11.95062330,0.11
2026-06-21 22:00:28.796,-0.008,-0.007,0.988,-39.6,5.5,5.5,0.2,-0.2,0.3,57.89481400,11.95062310,0.11
2026-06-21 22:00:28.841,-0.008,-0.007,0.988,-39.6,5.6,5.4,0.2,-0.2,0.3,57.89481400,11.95062310,0.11
2026-06-21 22:00:28.887,-0.008,-0.007,0.988,-39.6,5.6,5.5,0.2,-0.2,0.1,57.89481410,11.95062330,0.11
2026-06-21 22:00:28.916,-0.008,-0.007,0.989,-39.7,5.6,5.4,0.2,-0.2,0.2,57.89481410,11.95062340,0.11
2026-06-21 22:00:28.977,-0.008,-0.007,0.989,-39.6,5.6,5.4,0.2,-0.2,0.1,57.89481410,11.95062340,0.11
2026-06-21 22:00:29.007,-0.008,-0.007,0.989,-39.6,5.6,5.4,0.2,-0.2,0.2,57.89481400,11.95062340,0.11
2026-06-21 22:00:29.037,-0.008,-0.007,0.988,-39.6,5.7,5.4,0.2,-0.2,0.1,57.89481410,11.95062330,0.11
2026-06-21 22:00:29.081,-0.008,-0.007,0.989,-39.6,5.7,5.4,0.2,-0.2,0.1,57.89481410,11.95062330,0.11
2026-06-21 22:00:29.111,-0.007,-0.007,0.989,-39.6,5.6,5.5,0.2,-0.3,0.1,57.89481410,11.95062340,0.11
2026-06-21 22:00:29.156,-0.008,-0.007,0.989,-39.6,5.6,5.4,0.2,-0.2,0.1,57.89481410,11.95062340,0.11
2026-06-21 22:00:29.202,-0.008,-0.007,0.989,-39.6,5.6,5.4,0.2,-0.2,0.1,57.89481410,11.95062340,0.11
2026-06-21 22:00:29.248,-0.007,-0.007,0.989,-39.6,5.7,5.4,0.2,-0.3,0.0,57.89481420,11.95062330,0.11
2026-06-21 22:00:29.277,-0.007,-0.007,0.989,-39.6,5.7,5.4,0.2,-0.3,0.0,57.89481420,11.95062340,0.11
2026-06-21 22:00:29.322,-0.007,-0.007,0.989,-39.6,5.7,5.4,0.2,-0.3,0.1,57.89481420,11.95062340,0.11
2026-06-21 22:00:29.366,-0.007,-0.007,0.989,-39.6,5.7,5.5,0.2,-0.3,0.1,57.89481420,11.95062340,0.11
2026-06-21 22:00:29.397,-0.007,-0.008,0.989,-39.6,5.6,5.6,0.1,-0.3,0.1,57.89481420,11.95062350,0.11
2026-06-21 22:00:29.441,-0.008,-0.007,0.989,-39.6,5.7,5.6,0.2,-0.2,0.2,57.89481420,11.95062350,0.11
2026-06-21 22:00:29.487,-0.008,-0.007,0.989,-39.7,5.7,5.7,0.2,-0.2,0.1,57.89481420,11.95062350,0.11
2026-06-21 22:00:29.516,-0.008,-0.007,0.989,-39.7,5.7,5.6,0.2,-0.2,0.1,57.89481420,11.95062360,0.11
2026-06-21 22:00:29.561,-0.008,-0.007,0.989,-39.7,5.7,5.6,0.2,-0.2,0.1,57.89481430,11.95062350,0.11
2026-06-21 22:00:29.592,-0.008,-0.007,0.989,-39.7,5.6,5.5,0.2,-0.2,0.3,57.89481430,11.95062340,0.11
2026-06-21 22:00:29.637,-0.008,-0.007,0.988,-39.7,5.7,5.5,0.2,-0.2,0.1,57.89481430,11.95062350,0.11
2026-06-21 22:00:29.681,-0.007,-0.007,0.989,-39.8,5.8,5.5,0.2,-0.3,0.1,57.89481430,11.95062350,0.11
2026-06-21 22:00:29.727,-0.007,-0.007,0.989,-39.8,5.8,5.5,0.2,-0.3,0.1,57.89481430,11.95062350,0.11
2026-06-21 22:00:29.771,-0.007,-0.007,0.988,-39.9,5.9,5.6,0.2,-0.3,0.0,57.89481430,11.95062350,0.11
2026-06-21 22:00:29.816,-0.008,-0.007,0.989,-39.8,5.9,5.6,0.2,-0.2,0.2,57.89481430,11.95062360,0.11
2026-06-21 22:00:29.846,-0.008,-0.007,0.988,-39.7,5.8,5.5,0.2,-0.2,0.1,57.89481430,11.95062350,0.11
2026-06-21 22:00:29.891,-0.008,-0.007,0.989,-39.7,5.7,5.6,0.2,-0.2,0.1,57.89481440,11.95062350,0.11
2026-06-21 22:00:29.921,-0.008,-0.007,0.988,-39.7,5.7,5.5,0.2,-0.2,0.1,57.89481440,11.95062340,0.11
2026-06-21 22:00:29.982,-0.008,-0.007,0.989,-39.7,5.6,5.5,0.2,-0.2,0.1,57.89481440,11.95062350,0.11
2026-06-21 22:00:30.042,-0.008,-0.007,0.988,-39.8,5.7,5.4,0.2,-0.2,0.1,57.89481440,11.95062350,0.11
2026-06-21 22:00:30.086,-0.008,-0.007,0.989,-39.7,5.7,5.4,0.2,-0.2,0.3,57.89481450,11.95062370,0.11
2026-06-21 22:00:30.116,-0.008,-0.007,0.989,-39.8,5.7,5.3,0.2,-0.2,0.2,57.89481460,11.95062360,0.11
2026-06-21 22:00:30.162,-0.008,-0.007,0.989,-39.7,5.7,5.4,0.2,-0.2,0.1,57.89481450,11.95062360,0.11
2026-06-21 22:00:30.206,-0.008,-0.007,0.989,-39.7,5.7,5.3,0.2,-0.2,0.3,57.89481450,11.95062350,0.11
2026-06-21 22:00:30.237,-0.008,-0.007,0.989,-39.7,5.8,5.3,0.2,-0.2,0.1,57.89481450,11.95062350,0.11
2026-06-21 22:00:30.281,-0.008,-0.007,0.989,-39.7,5.7,5.3,0.2,-0.2,0.1,57.89481450,11.95062370,0.11
2026-06-21 22:00:30.327,-0.008,-0.007,0.989,-39.6,5.6,5.4,0.2,-0.2,0.3,57.89481450,11.95062380,0.11
2026-06-21 22:00:30.357,-0.008,-0.007,0.989,-39.6,5.6,5.4,0.2,-0.2,0.1,57.89481460,11.95062370,0.11
2026-06-21 22:00:30.402,-0.008,-0.007,0.989,-39.5,5.6,5.4,0.2,-0.2,0.2,57.89481460,11.95062360,0.11
2026-06-21 22:00:30.447,-0.008,-0.007,0.989,-39.5,5.7,5.5,0.2,-0.2,0.2,57.89481460,11.95062350,0.11
2026-06-21 22:00:30.477,-0.008,-0.007,0.988,-39.6,5.6,5.5,0.2,-0.2,0.0,57.89481460,11.95062360,0.11
2026-06-21 22:00:30.522,-0.008,-0.007,0.989,-39.6,5.6,5.5,0.2,-0.2,0.2,57.89481450,11.95062380,0.11
2026-06-21 22:00:30.551,-0.008,-0.007,0.989,-39.7,5.6,5.5,0.2,-0.2,0.3,57.89481460,11.95062390,0.11
2026-06-21 22:00:30.596,-0.008,-0.007,0.989,-39.7,5.7,5.5,0.2,-0.2,0.0,57.89481460,11.95062380,0.11
2026-06-21 22:00:30.642,-0.008,-0.007,0.989,-39.6,5.6,5.4,0.2,-0.2,0.0,57.89481470,11.95062380,0.11
2026-06-21 22:00:30.687,-0.008,-0.007,0.988,-39.5,5.6,5.5,0.2,-0.2,0.2,57.89481470,11.95062370,0.11
2026-06-21 22:00:30.717,-0.008,-0.007,0.989,-39.4,5.5,5.5,0.2,-0.2,0.2,57.89481480,11.95062370,0.11
2026-06-21 22:00:30.762,-0.008,-0.008,0.989,-39.5,5.5,5.6,0.1,-0.2,0.1,57.89481480,11.95062360,0.11
2026-06-21 22:00:30.807,-0.008,-0.007,0.989,-39.6,5.5,5.6,0.2,-0.2,0.0,57.89481480,11.95062370,0.11
2026-06-21 22:00:30.837,-0.008,-0.008,0.989,-39.6,5.6,5.5,0.1,-0.2,0.1,57.89481480,11.95062380,0.11
2026-06-21 22:00:30.882,-0.008,-0.007,0.989,-39.6,5.6,5.5,0.2,-0.2,0.1,57.89481480,11.95062380,0.11
2026-06-21 22:00:30.912,-0.008,-0.007,0.988,-39.6,5.6,5.5,0.2,-0.2,0.2,57.89481480,11.95062380,0.11
2026-06-21 22:00:30.972,-0.008,-0.007,0.989,-39.7,5.6,5.5,0.2,-0.2,0.2,57.89481480,11.95062370,0.11
2026-06-21 22:00:31.002,-0.008,-0.007,0.988,-39.7,5.6,5.5,0.2,-0.2,0.1,57.89481490,11.95062360,0.11
2026-06-21 22:00:31.046,-0.008,-0.007,0.988,-39.6,5.6,5.5,0.2,-0.2,0.1,57.89481490,11.95062370,0.11
2026-06-21 22:00:31.076,-0.008,-0.007,0.989,-39.6,5.6,5.5,0.2,-0.2,0.1,57.89481500,11.95062370,0.11
2026-06-21 22:00:31.121,-0.008,-0.007,0.988,-39.7,5.5,5.5,0.2,-0.2,0.1,57.89481500,11.95062380,0.11
2026-06-21 22:00:31.167,-0.008,-0.007,0.989,-39.6,5.5,5.5,0.2,-0.2,0.1,57.89481500,11.95062380,0.11
2026-06-21 22:00:31.197,-0.008,-0.007,0.989,-39.6,5.6,5.5,0.2,-0.2,0.2,57.89481510,11.95062370,0.11
2026-06-21 22:00:31.241,-0.007,-0.008,0.989,-39.5,5.5,5.5,0.1,-0.3,0.1,57.89481510,11.95062370,0.11
2026-06-21 22:00:31.271,-0.008,-0.007,0.989,-39.5,5.6,5.5,0.2,-0.2,0.1,57.89481510,11.95062380,0.11
2026-06-21 22:00:31.317,-0.008,-0.008,0.989,-39.6,5.6,5.5,0.1,-0.2,0.1,57.89481510,11.95062370,0.11
2026-06-21 22:00:31.364,-0.008,-0.008,0.988,-39.6,5.6,5.4,0.1,-0.2,0.1,57.89481510,11.95062370,0.11
2026-06-21 22:00:31.409,-0.008,-0.007,0.988,-39.7,5.7,5.4,0.2,-0.2,0.1,57.89481520,11.95062370,0.11
2026-06-21 22:00:31.438,-0.008,-0.007,0.988,-39.7,5.7,5.4,0.2,-0.2,0.1,57.89481520,11.95062380,0.11
2026-06-21 22:00:31.482,-0.008,-0.007,0.988,-39.7,5.7,5.4,0.2,-0.2,0.1,57.89481520,11.95062370,0.11
2026-06-21 22:00:31.527,-0.008,-0.007,0.988,-39.8,5.6,5.5,0.2,-0.2,0.1,57.89481520,11.95062380,0.11
2026-06-21 22:00:31.555,-0.008,-0.007,0.988,-39.7,5.6,5.5,0.2,-0.2,0.2,57.89481530,11.95062380,0.11
2026-06-21 22:00:31.602,-0.008,-0.007,0.988,-39.7,5.6,5.4,0.2,-0.2,0.1,57.89481530,11.95062380,0.11
2026-06-21 22:00:31.647,-0.008,-0.007,0.988,-39.8,5.6,5.4,0.2,-0.2,0.1,57.89481530,11.95062380,0.11
2026-06-21 22:00:31.677,-0.007,-0.007,0.988,-39.7,5.6,5.5,0.2,-0.3,0.0,57.89481540,11.95062370,0.11
2026-06-21 22:00:31.722,-0.008,-0.007,0.988,-39.6,5.6,5.6,0.2,-0.2,0.1,57.89481550,11.95062370,0.11
2026-06-21 22:00:31.767,-0.008,-0.007,0.988,-39.6,5.7,5.6,0.2,-0.2,0.1,57.89481540,11.95062370,0.11
2026-06-21 22:00:31.798,-0.008,-0.007,0.988,-39.7,5.8,5.6,0.2,-0.2,0.1,57.89481540,11.95062380,0.11
2026-06-21 22:00:31.842,-0.008,-0.007,0.988,-39.7,5.7,5.5,0.2,-0.2,0.1,57.89481540,11.95062380,0.11
2026-06-21 22:00:31.887,-0.007,-0.007,0.988,-39.7,5.7,5.5,0.2,-0.3,0.1,57.89481540,11.95062370,0.11
2026-06-21 22:00:31.917,-0.008,-0.007,0.988,-39.7,5.6,5.5,0.2,-0.2,0.0,57.89481550,11.95062370,0.11
2026-06-21 22:00:31.977,-0.008,-0.007,0.988,-39.6,5.7,5.5,0.2,-0.2,0.1,57.89481550,11.95062380,0.11
2026-06-21 22:00:32.007,-0.008,-0.007,0.988,-39.6,5.7,5.5,0.2,-0.2,0.1,57.89481550,11.95062380,0.11
2026-06-21 22:00:32.037,-0.007,-0.007,0.989,-39.6,5.6,5.6,0.2,-0.3,0.1,57.89481550,11.95062380,0.11
2026-06-21 22:00:32.082,-0.008,-0.007,0.989,-39.7,5.6,5.6,0.2,-0.2,0.1,57.89481550,11.95062380,0.11
2026-06-21 22:00:32.111,-0.007,-0.007,0.989,-39.7,5.7,5.5,0.2,-0.3,0.2,57.89481550,11.95062390,0.11
2026-06-21 22:00:32.156,-0.008,-0.007,0.989,-39.7,5.7,5.6,0.2,-0.2,0.0,57.89481550,11.95062390,0.11
2026-06-21 22:00:32.202,-0.008,-0.007,0.989,-39.7,5.7,5.4,0.2,-0.2,0.1,57.89481550,11.95062390,0.11
2026-06-21 22:00:32.246,-0.008,-0.007,0.988,-39.7,5.6,5.5,0.2,-0.2,0.1,57.89481560,11.95062380,0.11
2026-06-21 22:00:32.276,-0.008,-0.007,0.988,-39.7,5.6,5.5,0.2,-0.2,0.2,57.89481560,11.95062370,0.11
2026-06-21 22:00:32.336,-0.007,-0.007,0.988,-39.7,5.6,5.5,0.2,-0.3,0.3,57.89481560,11.95062360,0.11
2026-06-21 22:00:32.352,-0.007,-0.007,0.988,-39.7,5.6,5.6,0.2,-0.3,0.0,57.89481560,11.95062380,0.11
2026-06-21 22:00:32.397,-0.007,-0.007,0.988,-39.6,5.6,5.5,0.2,-0.3,0.1,57.89481560,11.95062380,0.11
2026-06-21 22:00:32.442,-0.008,-0.007,0.988,-39.6,5.6,5.6,0.2,-0.2,0.1,57.89481560,11.95062380,0.11
2026-06-21 22:00:32.487,-0.007,-0.007,0.988,-39.5,5.6,5.6,0.2,-0.3,0.1,57.89481570,11.95062390,0.11
2026-06-21 22:00:32.517,-0.008,-0.007,0.988,-39.6,5.7,5.5,0.2,-0.2,0.2,57.89481580,11.95062380,0.11
2026-06-21 22:00:32.561,-0.008,-0.007,0.988,-39.6,5.7,5.6,0.2,-0.2,0.1,57.89481570,11.95062380,0.11
2026-06-21 22:00:32.592,-0.008,-0.007,0.988,-39.6,5.7,5.5,0.2,-0.2,0.2,57.89481570,11.95062370,0.11
2026-06-21 22:00:32.637,-0.008,-0.007,0.988,-39.6,5.6,5.5,0.2,-0.2,0.2,57.89481570,11.95062370,0.11
2026-06-21 22:00:32.682,-0.008,-0.008,0.988,-39.6,5.6,5.5,0.1,-0.2,0.1,57.89481570,11.95062380,0.11
2026-06-21 22:00:32.727,-0.008,-0.007,0.988,-39.5,5.6,5.5,0.2,-0.2,0.1,57.89481570,11.95062380,0.11
2026-06-21 22:00:32.756,-0.008,-0.007,0.988,-39.4,5.6,5.5,0.2,-0.2,0.1,57.89481570,11.95062390,0.11
2026-06-21 22:00:32.802,-0.008,-0.007,0.988,-39.5,5.6,5.4,0.2,-0.2,0.2,57.89481580,11.95062380,0.11
2026-06-21 22:00:32.846,-0.008,-0.007,0.988,-39.6,5.5,5.4,0.2,-0.2,0.2,57.89481590,11.95062370,0.11
2026-06-21 22:00:32.876,-0.008,-0.007,0.988,-39.6,5.6,5.4,0.2,-0.2,0.3,57.89481580,11.95062350,0.11
2026-06-21 22:00:32.922,-0.008,-0.007,0.988,-39.7,5.6,5.4,0.2,-0.2,0.4,57.89481570,11.95062370,0.11
2026-06-21 22:00:32.981,-0.008,-0.007,0.988,-39.6,5.7,5.5,0.2,-0.2,0.0,57.89481580,11.95062360,0.11
2026-06-21 22:00:32.998,-0.008,-0.007,0.988,-39.6,5.7,5.5,0.2,-0.2,0.2,57.89481590,11.95062360,0.11
2026-06-21 22:00:33.042,-0.008,-0.007,0.988,-39.5,5.8,5.6,0.2,-0.2,0.1,57.89481590,11.95062370,0.11
2026-06-21 22:00:33.089,-0.008,-0.007,0.988,-39.6,5.7,5.5,0.2,-0.2,0.1,57.89481590,11.95062370,0.11
2026-06-21 22:00:33.119,-0.008,-0.007,0.988,-39.6,5.7,5.4,0.2,-0.2,0.1,57.89481590,11.95062380,0.11
2026-06-21 22:00:33.163,-0.008,-0.007,0.988,-39.7,5.6,5.4,0.2,-0.2,0.1,57.89481590,11.95062370,0.11
2026-06-21 22:00:33.207,-0.008,-0.007,0.989,-39.7,5.5,5.3,0.2,-0.2,0.0,57.89481590,11.95062370,0.11
2026-06-21 22:00:33.237,-0.008,-0.007,0.989,-39.7,5.6,5.3,0.2,-0.2,0.1,57.89481590,11.95062380,0.11
2026-06-21 22:00:33.282,-0.007,-0.007,0.989,-39.6,5.7,5.3,0.2,-0.3,0.2,57.89481590,11.95062380,0.11
2026-06-21 22:00:33.312,-0.008,-0.007,0.989,-39.5,5.6,5.4,0.2,-0.2,0.2,57.89481600,11.95062380,0.11
2026-06-21 22:00:33.356,-0.008,-0.007,0.989,-39.5,5.6,5.5,0.2,-0.2,0.1,57.89481600,11.95062380,0.11
2026-06-21 22:00:33.402,-0.008,-0.007,0.989,-39.6,5.6,5.5,0.2,-0.2,0.1,57.89481590,11.95062390,0.11
2026-06-21 22:00:33.432,-0.008,-0.007,0.989,-39.7,5.5,5.6,0.2,-0.2,0.1,57.89481590,11.95062390,0.11
2026-06-21 22:00:33.476,-0.007,-0.007,0.989,-39.7,5.5,5.4,0.2,-0.3,0.1,57.89481600,11.95062390,0.11
2026-06-21 22:00:33.522,-0.008,-0.007,0.989,-39.7,5.6,5.4,0.2,-0.2,0.2,57.89481610,11.95062400,0.11
2026-06-21 22:00:33.552,-0.008,-0.007,0.989,-39.7,5.6,5.3,0.2,-0.2,0.1,57.89481600,11.95062410,0.11
2026-06-21 22:00:33.611,-0.008,-0.007,0.989,-39.6,5.6,5.3,0.2,-0.2,0.1,57.89481600,11.95062400,0.11
2026-06-21 22:00:33.641,-0.008,-0.007,0.989,-39.7,5.4,5.4,0.2,-0.2,0.1,57.89481600,11.95062420,0.11
2026-06-21 22:00:33.687,-0.007,-0.007,0.988,-39.7,5.5,5.4,0.2,-0.3,0.1,57.89481600,11.95062420,0.11
2026-06-21 22:00:33.717,-0.007,-0.007,0.988,-39.7,5.7,5.5,0.2,-0.3,0.2,57.89481590,11.95062420,0.11
2026-06-21 22:00:33.762,-0.008,-0.007,0.988,-39.7,5.7,5.4,0.2,-0.2,0.2,57.89481590,11.95062420,0.11
2026-06-21 22:00:33.807,-0.008,-0.007,0.988,-39.6,5.8,5.4,0.2,-0.2,0.0,57.89481600,11.95062420,0.11
2026-06-21 22:00:33.837,-0.008,-0.007,0.988,-39.6,5.8,5.4,0.2,-0.2,0.1,57.89481600,11.95062420,0.11
2026-06-21 22:00:33.882,-0.008,-0.007,0.988,-39.6,5.7,5.5,0.2,-0.2,0.3,57.89481610,11.95062420,0.11
2026-06-21 22:00:33.927,-0.008,-0.007,0.988,-39.6,5.6,5.6,0.2,-0.2,0.0,57.89481610,11.95062430,0.11
2026-06-21 22:00:33.971,-0.007,-0.007,0.988,-39.6,5.5,5.7,0.2,-0.3,0.2,57.89481600,11.95062450,0.11
2026-06-21 22:00:34.002,-0.007,-0.007,0.988,-39.6,5.6,5.7,0.2,-0.3,0.2,57.89481590,11.95062450,0.11
2026-06-21 22:00:34.032,-0.007,-0.007,0.988,-39.6,5.5,5.7,0.2,-0.3,0.1,57.89481590,11.95062460,0.11
2026-06-21 22:00:34.077,-0.008,-0.007,0.988,-39.6,5.6,5.7,0.2,-0.2,0.2,57.89481600,11.95062450,0.11
2026-06-21 22:00:34.121,-0.008,-0.007,0.989,-39.6,5.6,5.6,0.2,-0.2,0.2,57.89481610,11.95062450,0.11
2026-06-21 22:00:34.167,-0.008,-0.007,0.989,-39.5,5.6,5.6,0.2,-0.2,0.0,57.89481610,11.95062450,0.11
2026-06-21 22:00:34.197,-0.008,-0.007,0.989,-39.4,5.6,5.6,0.2,-0.2,0.1,57.89481610,11.95062450,0.11
2026-06-21 22:00:34.242,-0.008,-0.007,0.989,-39.5,5.6,5.5,0.2,-0.2,0.1,57.89481610,11.95062460,0.11
2026-06-21 22:00:34.286,-0.008,-0.007,0.989,-39.5,5.6,5.5,0.2,-0.2,0.2,57.89481610,11.95062450,0.11
2026-06-21 22:00:34.317,-0.008,-0.007,0.989,-39.6,5.6,5.5,0.2,-0.2,0.1,57.89481600,11.95062470,0.11
2026-06-21 22:00:34.362,-0.008,-0.007,0.988,-39.6,5.6,5.5,0.2,-0.2,0.1,57.89481610,11.95062470,0.11
2026-06-21 22:00:34.407,-0.007,-0.007,0.988,-39.6,5.6,5.4,0.2,-0.3,0.3,57.89481610,11.95062490,0.11
2026-06-21 22:00:34.437,-0.008,-0.007,0.988,-39.6,5.6,5.5,0.2,-0.2,0.1,57.89481600,11.95062480,0.11
2026-06-21 22:00:34.482,-0.008,-0.007,0.989,-39.6,5.7,5.4,0.2,-0.2,0.1,57.89481610,11.95062480,0.11
2026-06-21 22:00:34.513,-0.008,-0.007,0.989,-39.6,5.7,5.4,0.2,-0.2,0.1,57.89481610,11.95062490,0.11
2026-06-21 22:00:34.557,-0.008,-0.007,0.989,-39.7,5.7,5.5,0.2,-0.2,0.1,57.89481610,11.95062500,0.11
2026-06-21 22:00:34.603,-0.008,-0.008,0.989,-39.7,5.7,5.5,0.1,-0.2,0.2,57.89481620,11.95062490,0.11
2026-06-21 22:00:34.647,-0.008,-0.007,0.989,-39.7,5.6,5.5,0.2,-0.2,0.0,57.89481620,11.95062500,0.11
2026-06-21 22:00:34.678,-0.007,-0.007,0.989,-39.7,5.5,5.5,0.2,-0.3,0.2,57.89481610,11.95062510,0.11
2026-06-21 22:00:34.722,-0.008,-0.007,0.989,-39.7,5.6,5.4,0.2,-0.2,0.1,57.89481610,11.95062510,0.11
2026-06-21 22:00:34.767,-0.008,-0.007,0.989,-39.6,5.6,5.4,0.2,-0.2,0.3,57.89481610,11.95062510,0.11
2026-06-21 22:00:34.796,-0.008,-0.007,0.989,-39.6,5.6,5.4,0.2,-0.2,0.2,57.89481610,11.95062520,0.11
2026-06-21 22:00:34.842,-0.008,-0.007,0.989,-39.5,5.6,5.4,0.2,-0.2,0.1,57.89481620,11.95062520,0.11
2026-06-21 22:00:34.901,-0.008,-0.007,0.989,-39.5,5.7,5.4,0.2,-0.2,0.0,57.89481610,11.95062530,0.11
2026-06-21 22:00:34.917,-0.008,-0.007,0.989,-39.6,5.7,5.4,0.2,-0.2,0.2,57.89481620,11.95062520,0.11
2026-06-21 22:00:34.975,-0.008,-0.007,0.989,-39.6,5.8,5.4,0.2,-0.2,0.1,57.89481620,11.95062530,0.11
2026-06-21 22:00:34.992,-0.008,-0.007,0.989,-39.6,5.8,5.3,0.2,-0.2,0.1,57.89481620,11.95062530,0.11
2026-06-21 22:00:35.037,-0.008,-0.007,0.989,-39.6,5.8,5.4,0.2,-0.2,0.2,57.89481620,11.95062550,0.11
2026-06-21 22:00:35.081,-0.008,-0.007,0.989,-39.6,5.7,5.5,0.2,-0.2,0.1,57.89481610,11.95062550,0.11
2026-06-21 22:00:35.127,-0.007,-0.007,0.989,-39.6,5.8,5.5,0.2,-0.3,0.1,57.89481610,11.95062560,0.11
2026-06-21 22:00:35.157,-0.007,-0.007,0.989,-39.6,5.8,5.6,0.2,-0.3,0.1,57.89481610,11.95062550,0.11
2026-06-21 22:00:35.202,-0.007,-0.007,0.989,-39.6,5.7,5.5,0.2,-0.3,0.3,57.89481620,11.95062570,0.11
2026-06-21 22:00:35.247,-0.008,-0.007,0.989,-39.6,5.6,5.5,0.2,-0.2,0.2,57.89481630,11.95062570,0.11
2026-06-21 22:00:35.277,-0.008,-0.007,0.989,-39.6,5.6,5.5,0.2,-0.2,0.1,57.89481620,11.95062570,0.11
2026-06-21 22:00:35.322,-0.008,-0.007,0.989,-39.5,5.6,5.4,0.2,-0.2,0.2,57.89481620,11.95062570,0.11
2026-06-21 22:00:35.367,-0.007,-0.007,0.988,-39.6,5.6,5.4,0.2,-0.3,0.1,57.89481620,11.95062580,0.11
2026-06-21 22:00:35.397,-0.007,-0.007,0.988,-39.6,5.6,5.3,0.2,-0.3,0.0,57.89481620,11.95062580,0.11
2026-06-21 22:00:35.442,-0.008,-0.007,0.989,-39.6,5.6,5.4,0.2,-0.2,0.1,57.89481620,11.95062590,0.11
2026-06-21 22:00:35.472,-0.008,-0.007,0.989,-39.6,5.6,5.5,0.2,-0.2,0.1,57.89481620,11.95062590,0.11
2026-06-21 22:00:35.516,-0.008,-0.007,0.989,-39.6,5.7,5.6,0.2,-0.2,0.2,57.89481620,11.95062580,0.11
2026-06-21 22:00:35.561,-0.008,-0.007,0.989,-39.6,5.6,5.6,0.2,-0.2,0.2,57.89481630,11.95062580,0.11
2026-06-21 22:00:35.607,-0.008,-0.007,0.989,-39.7,5.5,5.6,0.2,-0.2,0.2,57.89481630,11.95062600,0.11
2026-06-21 22:00:35.637,-0.007,-0.007,0.989,-39.6,5.6,5.6,0.2,-0.3,0.3,57.89481640,11.95062610,0.11
2026-06-21 22:00:35.682,-0.008,-0.007,0.988,-39.6,5.6,5.5,0.2,-0.2,0.1,57.89481640,11.95062610,0.11
2026-06-21 22:00:35.714,-0.007,-0.007,0.988,-39.6,5.6,5.6,0.2,-0.3,0.1,57.89481630,11.95062610,0.11
2026-06-21 22:00:35.757,-0.008,-0.007,0.988,-39.5,5.6,5.5,0.2,-0.2,0.1,57.89481630,11.95062610,0.11
2026-06-21 22:00:35.801,-0.007,-0.007,0.989,-39.6,5.6,5.5,0.2,-0.3,0.2,57.89481630,11.95062630,0.11
2026-06-21 22:00:35.847,-0.008,-0.007,0.989,-39.5,5.6,5.5,0.2,-0.2,0.2,57.89481630,11.95062620,0.11
2026-06-21 22:00:35.876,-0.007,-0.007,0.989,-39.6,5.7,5.5,0.2,-0.3,0.1,57.89481630,11.95062630,0.11
2026-06-21 22:00:35.921,-0.007,-0.007,0.988,-39.6,5.7,5.4,0.2,-0.3,0.1,57.89481630,11.95062630,0.11
2026-06-21 22:00:35.982,-0.007,-0.007,0.988,-39.5,5.6,5.4,0.2,-0.3,0.2,57.89481640,11.95062640,0.11
2026-06-21 22:00:35.997,-0.007,-0.007,0.988,-39.6,5.7,5.4,0.2,-0.3,0.2,57.89481630,11.95062640,0.11
2026-06-21 22:00:36.042,-0.008,-0.007,0.989,-39.6,5.8,5.4,0.2,-0.2,0.1,57.89481640,11.95062640,0.11
2026-06-21 22:00:36.088,-0.008,-0.007,0.989,-39.6,5.7,5.4,0.2,-0.2,0.0,57.89481640,11.95062650,0.11
2026-06-21 22:00:36.117,-0.008,-0.007,0.989,-39.6,5.7,5.3,0.2,-0.2,0.1,57.89481630,11.95062650,0.11
2026-06-21 22:00:36.177,-0.008,-0.007,0.989,-39.6,5.7,5.3,0.2,-0.2,0.1,57.89481630,11.95062650,0.11
2026-06-21 22:00:36.206,-0.008,-0.007,0.989,-39.6,5.6,5.3,0.2,-0.2,0.0,57.89481640,11.95062650,0.11
2026-06-21 22:00:36.252,-0.007,-0.007,0.989,-39.6,5.6,5.4,0.2,-0.3,0.1,57.89481640,11.95062660,0.11
2026-06-21 22:00:36.298,-0.008,-0.007,0.989,-39.6,5.6,5.5,0.2,-0.2,0.1,57.89481640,11.95062660,0.11
2026-06-21 22:00:36.329,-0.008,-0.007,0.989,-39.5,5.6,5.6,0.2,-0.2,0.1,57.89481650,11.95062660,0.11
2026-06-21 22:00:36.359,-0.008,-0.007,0.989,-39.6,5.8,5.6,0.2,-0.2,0.1,57.89481650,11.95062670,0.11
2026-06-21 22:00:36.402,-0.008,-0.007,0.989,-39.6,5.7,5.6,0.2,-0.2,0.1,57.89481650,11.95062680,0.11
2026-06-21 22:00:36.432,-0.008,-0.007,0.989,-39.7,5.7,5.6,0.2,-0.2,0.1,57.89481650,11.95062670,0.11
2026-06-21 22:00:36.478,-0.008,-0.007,0.989,-39.8,5.6,5.4,0.2,-0.2,0.0,57.89481650,11.95062680,0.11
2026-06-21 22:00:36.523,-0.008,-0.007,0.989,-39.7,5.5,5.4,0.2,-0.2,0.1,57.89481650,11.95062670,0.11
2026-06-21 22:00:36.567,-0.008,-0.007,0.988,-39.6,5.6,5.4,0.2,-0.2,0.1,57.89481660,11.95062680,0.11
2026-06-21 22:00:36.597,-0.007,-0.007,0.988,-39.6,5.5,5.4,0.2,-0.3,0.1,57.89481660,11.95062690,0.11
2026-06-21 22:00:36.642,-0.007,-0.007,0.988,-39.4,5.5,5.3,0.2,-0.3,0.0,57.89481660,11.95062690,0.11
2026-06-21 22:00:36.686,-0.008,-0.007,0.989,-39.5,5.5,5.2,0.2,-0.2,0.1,57.89481660,11.95062690,0.11
2026-06-21 22:00:36.716,-0.008,-0.007,0.988,-39.6,5.5,5.2,0.2,-0.2,0.1,57.89481670,11.95062690,0.11
2026-06-21 22:00:36.762,-0.008,-0.007,0.988,-39.6,5.6,5.2,0.2,-0.2,0.2,57.89481670,11.95062710,0.11
2026-06-21 22:00:36.807,-0.008,-0.007,0.988,-39.7,5.6,5.3,0.2,-0.2,0.1,57.89481670,11.95062710,0.11
2026-06-21 22:00:36.837,-0.008,-0.007,0.988,-39.8,5.7,5.4,0.2,-0.2,0.2,57.89481670,11.95062720,0.11
2026-06-21 22:00:36.881,-0.007,-0.007,0.988,-39.7,5.6,5.4,0.2,-0.3,0.2,57.89481670,11.95062710,0.11
2026-06-21 22:00:36.911,-0.007,-0.007,0.988,-39.7,5.6,5.4,0.2,-0.3,0.1,57.89481670,11.95062710,0.11
2026-06-21 22:00:36.971,-0.007,-0.007,0.988,-39.8,5.8,5.5,0.2,-0.3,0.1,57.89481680,11.95062710,0.11
2026-06-21 22:00:37.001,-0.007,-0.007,0.989,-39.7,5.8,5.5,0.2,-0.3,0.1,57.89481680,11.95062720,0.11
2026-06-21 22:00:37.046,-0.008,-0.007,0.989,-39.7,5.8,5.5,0.2,-0.2,0.2,57.89481680,11.95062730,0.11
2026-06-21 22:00:37.076,-0.007,-0.007,0.989,-39.6,5.8,5.5,0.2,-0.3,0.1,57.89481680,11.95062730,0.11
2026-06-21 22:00:37.122,-0.008,-0.007,0.989,-39.6,5.7,5.4,0.2,-0.2,0.2,57.89481680,11.95062730,0.11
2026-06-21 22:00:37.167,-0.008,-0.007,0.989,-39.6,5.6,5.4,0.2,-0.2,0.2,57.89481680,11.95062730,0.11
2026-06-21 22:00:37.197,-0.008,-0.007,0.989,-39.6,5.6,5.4,0.2,-0.2,0.1,57.89481680,11.95062740,0.11
2026-06-21 22:00:37.243,-0.008,-0.007,0.989,-39.6,5.5,5.4,0.2,-0.2,0.1,57.89481680,11.95062740,0.11
2026-06-21 22:00:37.286,-0.008,-0.007,0.989,-39.6,5.6,5.4,0.2,-0.2,0.1,57.89481680,11.95062740,0.11
2026-06-21 22:00:37.316,-0.007,-0.007,0.989,-39.6,5.6,5.5,0.2,-0.3,0.0,57.89481680,11.95062750,0.11
2026-06-21 22:00:37.361,-0.007,-0.008,0.989,-39.7,5.7,5.5,0.1,-0.3,0.2,57.89481690,11.95062760,0.11
2026-06-21 22:00:37.392,-0.007,-0.007,0.988,-39.7,5.7,5.5,0.2,-0.3,0.1,57.89481690,11.95062750,0.11
2026-06-21 22:00:37.452,-0.008,-0.008,0.988,-39.8,5.6,5.6,0.1,-0.2,0.1,57.89481690,11.95062750,0.11
2026-06-21 22:00:37.496,-0.008,-0.007,0.988,-39.7,5.6,5.5,0.2,-0.2,0.2,57.89481690,11.95062750,0.11
2026-06-21 22:00:37.527,-0.008,-0.007,0.988,-39.7,5.6,5.4,0.2,-0.2,0.0,57.89481690,11.95062750,0.11
2026-06-21 22:00:37.556,-0.008,-0.007,0.989,-39.7,5.6,5.3,0.2,-0.2,0.1,57.89481690,11.95062750,0.11
2026-06-21 22:00:37.602,-0.007,-0.007,0.989,-39.7,5.5,5.4,0.2,-0.3,0.2,57.89481700,11.95062770,0.11
2026-06-21 22:00:37.646,-0.007,-0.008,0.989,-39.7,5.6,5.5,0.1,-0.3,0.1,57.89481700,11.95062770,0.11
2026-06-21 22:00:37.676,-0.008,-0.007,0.989,-39.7,5.5,5.5,0.2,-0.2,0.1,57.89481710,11.95062770,0.11
2026-06-21 22:00:37.722,-0.007,-0.007,0.989,-39.6,5.6,5.6,0.2,-0.3,0.2,57.89481710,11.95062770,0.11
2026-06-21 22:00:37.767,-0.008,-0.007,0.988,-39.6,5.6,5.6,0.2,-0.2,0.0,57.89481710,11.95062770,0.11
2026-06-21 22:00:37.796,-0.008,-0.007,0.989,-39.6,5.5,5.4,0.2,-0.2,0.1,57.89481710,11.95062780,0.11
2026-06-21 22:00:37.856,-0.009,-0.007,0.988,-39.6,5.6,5.5,0.2,-0.2,0.1,57.89481710,11.95062780,0.11
2026-06-21 22:00:37.887,-0.009,-0.007,0.989,-39.6,5.6,5.4,0.2,-0.2,0.3,57.89481710,11.95062770,0.11
2026-06-21 22:00:37.916,-0.008,-0.007,0.989,-39.6,5.6,5.4,0.2,-0.2,0.1,57.89481710,11.95062770,0.11
2026-06-21 22:00:37.976,-0.007,-0.007,0.989,-39.6,5.7,5.5,0.2,-0.3,0.2,57.89481720,11.95062770,0.11
2026-06-21 22:00:38.007,-0.007,-0.007,0.989,-39.6,5.7,5.5,0.2,-0.3,0.0,57.89481710,11.95062780,0.11
2026-06-21 22:00:38.037,-0.007,-0.007,0.989,-39.6,5.6,5.6,0.2,-0.3,0.1,57.89481720,11.95062790,0.11
2026-06-21 22:00:38.081,-0.007,-0.007,0.989,-39.6,5.7,5.6,0.2,-0.3,0.1,57.89481720,11.95062790,0.11
2026-06-21 22:00:38.111,-0.008,-0.007,0.988,-39.6,5.8,5.5,0.2,-0.2,0.1,57.89481720,11.95062800,0.11
2026-06-21 22:00:38.172,-0.009,-0.007,0.988,-39.6,5.7,5.5,0.2,-0.2,0.1,57.89481720,11.95062810,0.11
2026-06-21 22:00:38.201,-0.009,-0.007,0.988,-39.7,5.6,5.4,0.2,-0.2,0.1,57.89481720,11.95062800,0.11
2026-06-21 22:00:38.246,-0.008,-0.007,0.989,-39.6,5.6,5.4,0.2,-0.2,0.1,57.89481730,11.95062810,0.11
2026-06-21 22:00:38.277,-0.008,-0.007,0.989,-39.6,5.5,5.5,0.2,-0.2,0.1,57.89481720,11.95062820,0.11
2026-06-21 22:00:38.322,-0.006,-0.007,0.989,-39.7,5.5,5.5,0.2,-0.4,0.1,57.89481720,11.95062830,0.11
2026-06-21 22:00:38.367,-0.006,-0.007,0.989,-39.6,5.6,5.5,0.2,-0.4,0.1,57.89481730,11.95062830,0.11
2026-06-21 22:00:38.395,-0.007,-0.007,0.989,-39.7,5.6,5.6,0.2,-0.3,0.0,57.89481730,11.95062830,0.11
2026-06-21 22:00:38.441,-0.008,-0.007,0.989,-39.7,5.7,5.5,0.2,-0.2,0.2,57.89481720,11.95062830,0.11
2026-06-21 22:00:38.501,-0.009,-0.007,0.988,-39.7,5.7,5.4,0.2,-0.2,0.2,57.89481720,11.95062820,0.11
2026-06-21 22:00:38.517,-0.008,-0.007,0.989,-39.7,5.7,5.5,0.2,-0.2,0.0,57.89481720,11.95062830,0.11
2026-06-21 22:00:38.561,-0.008,-0.007,0.989,-39.6,5.7,5.5,0.2,-0.2,0.2,57.89481730,11.95062830,0.11
2026-06-21 22:00:38.607,-0.007,-0.007,0.989,-39.7,5.7,5.4,0.2,-0.3,0.1,57.89481730,11.95062840,0.11
2026-06-21 22:00:38.637,-0.007,-0.007,0.988,-39.6,5.6,5.5,0.2,-0.3,0.2,57.89481720,11.95062860,0.11
2026-06-21 22:00:38.681,-0.007,-0.007,0.989,-39.5,5.7,5.4,0.2,-0.3,0.1,57.89481730,11.95062860,0.11
2026-06-21 22:00:38.726,-0.008,-0.007,0.988,-39.5,5.7,5.4,0.2,-0.2,0.2,57.89481730,11.95062860,0.11
2026-06-21 22:00:38.756,-0.008,-0.007,0.988,-39.4,5.6,5.5,0.2,-0.2,0.1,57.89481720,11.95062860,0.11
2026-06-21 22:00:38.801,-0.009,-0.008,0.989,-39.4,5.7,5.4,0.1,-0.2,0.1,57.89481720,11.95062880,0.11
2026-06-21 22:00:38.831,-0.008,-0.007,0.989,-39.5,5.5,5.4,0.2,-0.2,0.1,57.89481730,11.95062880,0.11
2026-06-21 22:00:38.876,-0.007,-0.007,0.989,-39.4,5.6,5.5,0.2,-0.3,0.2,57.89481730,11.95062880,0.11
2026-06-21 22:00:38.922,-0.007,-0.007,0.989,-39.5,5.6,5.5,0.2,-0.3,0.0,57.89481730,11.95062880,0.11
2026-06-21 22:00:38.981,-0.007,-0.007,0.988,-39.6,5.7,5.5,0.2,-0.3,0.1,57.89481730,11.95062870,0.11
2026-06-21 22:00:38.997,-0.009,-0.007,0.988,-39.6,5.7,5.5,0.2,-0.2,0.2,57.89481730,11.95062870,0.11
2026-06-21 22:00:39.040,-0.009,-0.007,0.989,-39.7,5.7,5.5,0.2,-0.2,0.1,57.89481730,11.95062880,0.11
2026-06-21 22:00:39.086,-0.008,-0.007,0.989,-39.8,5.7,5.5,0.2,-0.2,0.1,57.89481740,11.95062890,0.11
2026-06-21 22:00:39.116,-0.008,-0.007,0.989,-39.7,5.7,5.5,0.2,-0.2,0.1,57.89481730,11.95062890,0.11
2026-06-21 22:00:39.161,-0.007,-0.007,0.989,-39.6,5.6,5.4,0.2,-0.3,0.2,57.89481740,11.95062880,0.11
2026-06-21 22:00:39.191,-0.007,-0.007,0.989,-39.6,5.7,5.2,0.2,-0.3,0.1,57.89481740,11.95062880,0.11
2026-06-21 22:00:39.237,-0.008,-0.007,0.988,-39.6,5.7,5.3,0.2,-0.2,0.1,57.89481750,11.95062880,0.11
2026-06-21 22:00:39.282,-0.007,-0.007,0.989,-39.6,5.6,5.4,0.2,-0.3,0.1,57.89481750,11.95062880,0.11
2026-06-21 22:00:39.311,-0.007,-0.007,0.989,-39.6,5.7,5.5,0.2,-0.3,0.1,57.89481750,11.95062890,0.11
2026-06-21 22:00:39.357,-0.007,-0.007,0.989,-39.6,5.6,5.7,0.2,-0.3,0.0,57.89481750,11.95062880,0.11
2026-06-21 22:00:39.417,-0.007,-0.007,0.989,-39.6,5.7,5.6,0.2,-0.3,0.0,57.89481750,11.95062880,0.11
2026-06-21 22:00:39.432,-0.009,-0.007,0.988,-39.6,5.7,5.6,0.2,-0.2,0.3,57.89481760,11.95062870,0.11
2026-06-21 22:00:39.476,-0.008,-0.007,0.988,-39.7,5.7,5.5,0.2,-0.2,0.1,57.89481750,11.95062880,0.11
2026-06-21 22:00:39.524,-0.009,-0.007,0.988,-39.8,5.6,5.4,0.2,-0.2,0.0,57.89481760,11.95062880,0.11
2026-06-21 22:00:39.552,-0.008,-0.007,0.988,-39.8,5.4,5.4,0.2,-0.2,0.1,57.89481760,11.95062890,0.11
2026-06-21 22:00:39.596,-0.007,-0.008,0.989,-39.8,5.4,5.5,0.1,-0.3,0.1,57.89481760,11.95062890,0.11
2026-06-21 22:00:39.642,-0.007,-0.008,0.989,-39.7,5.6,5.5,0.1,-0.3,0.2,57.89481760,11.95062880,0.11
2026-06-21 22:00:39.686,-0.007,-0.007,0.989,-39.7,5.7,5.5,0.2,-0.3,0.1,57.89481760,11.95062880,0.11
2026-06-21 22:00:39.732,-0.008,-0.007,0.989,-39.6,5.7,5.5,0.2,-0.2,0.1,57.89481770,11.95062880,0.11
2026-06-21 22:00:39.761,-0.008,-0.007,0.989,-39.6,5.7,5.4,0.2,-0.2,0.2,57.89481770,11.95062880,0.11
2026-06-21 22:00:39.807,-0.008,-0.007,0.988,-39.7,5.6,5.4,0.2,-0.2,0.2,57.89481770,11.95062890,0.11
2026-06-21 22:00:39.837,-0.009,-0.007,0.988,-39.7,5.5,5.4,0.2,-0.2,0.1,57.89481770,11.95062890,0.11
2026-06-21 22:00:39.882,-0.008,-0.007,0.988,-39.7,5.5,5.4,0.2,-0.2,0.3,57.89481770,11.95062880,0.11
2026-06-21 22:00:39.911,-0.007,-0.007,0.988,-39.7,5.5,5.5,0.2,-0.3,0.2,57.89481770,11.95062870,0.11
2026-06-21 22:00:39.987,-0.007,-0.007,0.989,-39.5,5.7,5.5,0.2,-0.3,0.1,57.89481770,11.95062880,0.11
2026-06-21 22:00:40.050,-0.008,-0.007,0.989,-39.4,5.8,5.4,0.2,-0.2,0.4,57.89481790,11.95062870,0.11
2026-06-21 22:00:40.093,-0.008,-0.007,0.989,-39.5,5.8,5.4,0.2,-0.2,0.3,57.89481770,11.95062900,0.11
2026-06-21 22:00:40.122,-0.008,-0.007,0.989,-39.7,5.7,5.4,0.2,-0.2,0.1,57.89481780,11.95062880,0.11
2026-06-21 22:00:40.166,-0.008,-0.007,0.989,-39.8,5.6,5.5,0.2,-0.2,0.1,57.89481770,11.95062890,0.11
2026-06-21 22:00:40.196,-0.007,-0.007,0.989,-39.8,5.7,5.4,0.2,-0.3,0.2,57.89481770,11.95062880,0.11
2026-06-21 22:00:40.241,-0.007,-0.008,0.988,-39.7,5.8,5.4,0.1,-0.3,0.1,57.89481780,11.95062870,0.11
2026-06-21 22:00:40.271,-0.007,-0.007,0.989,-39.7,5.8,5.5,0.2,-0.3,0.1,57.89481780,11.95062870,0.11
2026-06-21 22:00:40.316,-0.008,-0.007,0.989,-39.7,5.8,5.5,0.2,-0.2,0.1,57.89481780,11.95062870,0.11
2026-06-21 22:00:40.362,-0.009,-0.007,0.989,-39.6,5.8,5.5,0.2,-0.2,0.1,57.89481780,11.95062880,0.11
2026-06-21 22:00:40.407,-0.008,-0.007,0.989,-39.6,5.6,5.4,0.2,-0.2,0.0,57.89481780,11.95062880,0.11
2026-06-21 22:00:40.437,-0.008,-0.007,0.988,-39.6,5.6,5.4,0.2,-0.2,0.3,57.89481780,11.95062890,0.11
2026-06-21 22:00:40.481,-0.007,-0.007,0.989,-39.6,5.6,5.4,0.2,-0.3,0.1,57.89481780,11.95062880,0.11
2026-06-21 22:00:40.526,-0.007,-0.007,0.989,-39.5,5.6,5.4,0.2,-0.3,0.1,57.89481780,11.95062880,0.11
2026-06-21 22:00:40.556,-0.008,-0.007,0.989,-39.5,5.8,5.5,0.2,-0.2,0.1,57.89481780,11.95062890,0.11
2026-06-21 22:00:40.602,-0.008,-0.007,0.989,-39.6,5.7,5.5,0.2,-0.2,0.0,57.89481790,11.95062890,0.11
2026-06-21 22:00:40.631,-0.008,-0.007,0.989,-39.6,5.8,5.4,0.2,-0.2,0.1,57.89481790,11.95062890,0.11
2026-06-21 22:00:40.677,-0.007,-0.008,0.989,-39.6,5.7,5.5,0.1,-0.3,0.1,57.89481790,11.95062890,0.11
2026-06-21 22:00:40.721,-0.007,-0.008,0.989,-39.5,5.7,5.4,0.1,-0.3,0.1,57.89481790,11.95062880,0.11
2026-06-21 22:00:40.767,-0.008,-0.008,0.989,-39.5,5.7,5.5,0.1,-0.2,0.0,57.89481790,11.95062890,0.11
2026-06-21 22:00:40.797,-0.008,-0.007,0.989,-39.5,5.7,5.5,0.2,-0.2,0.2,57.89481800,11.95062870,0.11
2026-06-21 22:00:40.841,-0.008,-0.007,0.989,-39.5,5.7,5.5,0.2,-0.2,0.2,57.89481800,11.95062870,0.11
2026-06-21 22:00:40.872,-0.008,-0.007,0.989,-39.6,5.7,5.4,0.2,-0.2,0.1,57.89481800,11.95062870,0.11
2026-06-21 22:00:40.917,-0.007,-0.007,0.989,-39.6,5.7,5.4,0.2,-0.3,0.2,57.89481800,11.95062860,0.11
2026-06-21 22:00:40.977,-0.007,-0.007,0.988,-39.7,5.6,5.5,0.2,-0.3,0.1,57.89481800,11.95062870,0.11
2026-06-21 22:00:41.007,-0.007,-0.007,0.988,-39.7,5.7,5.5,0.2,-0.3,0.1,57.89481800,11.95062880,0.11
2026-06-21 22:00:41.036,-0.007,-0.007,0.988,-39.6,5.6,5.6,0.2,-0.3,0.1,57.89481810,11.95062880,0.11
2026-06-21 22:00:41.081,-0.009,-0.007,0.988,-39.6,5.8,5.6,0.2,-0.2,0.0,57.89481810,11.95062880,0.11
2026-06-21 22:00:41.126,-0.009,-0.007,0.988,-39.7,5.7,5.5,0.2,-0.2,0.1,57.89481820,11.95062880,0.11
2026-06-21 22:00:41.156,-0.009,-0.007,0.988,-39.7,5.9,5.5,0.2,-0.2,0.1,57.89481820,11.95062880,0.11
2026-06-21 22:00:41.202,-0.009,-0.007,0.988,-39.7,5.8,5.4,0.2,-0.2,0.2,57.89481820,11.95062870,0.11
2026-06-21 22:00:41.232,-0.008,-0.007,0.988,-39.6,5.7,5.3,0.2,-0.2,0.1,57.89481820,11.95062870,0.11
2026-06-21 22:00:41.292,-0.008,-0.007,0.988,-39.5,5.7,5.2,0.2,-0.2,0.1,57.89481820,11.95062870,0.11
2026-06-21 22:00:41.337,-0.009,-0.007,0.989,-39.6,5.7,5.1,0.2,-0.2,0.1,57.89481830,11.95062870,0.11
2026-06-21 22:00:41.352,-0.007,-0.008,0.990,-39.6,5.6,5.1,0.1,-0.3,0.0,57.89481830,11.95062870,0.11
2026-06-21 22:00:41.396,-0.006,-0.007,0.989,-39.5,5.8,5.3,0.2,-0.4,0.1,57.89481840,11.95062860,0.11
2026-06-21 22:00:41.441,-0.008,-0.008,0.988,-39.6,5.7,5.4,0.1,-0.2,0.1,57.89481840,11.95062850,0.11
2026-06-21 22:00:41.486,-0.005,-0.008,0.988,-39.6,5.7,5.4,0.1,-0.4,0.2,57.89481840,11.95062860,0.11
2026-06-21 22:00:41.516,-0.009,-0.007,0.988,-39.6,5.8,5.5,0.2,-0.2,0.1,57.89481840,11.95062860,0.11
2026-06-21 22:00:41.561,-0.005,-0.008,0.988,-39.6,5.1,5.7,0.1,-0.4,0.0,57.89481840,11.95062860,0.11
2026-06-21 22:00:41.607,-0.007,-0.008,0.989,-39.6,5.8,5.6,0.1,-0.3,0.1,57.89481850,11.95062860,0.11
2026-06-21 22:00:41.637,-0.007,-0.007,0.989,-39.7,5.7,5.7,0.2,-0.3,0.0,57.89481850,11.95062860,0.11
2026-06-21 22:00:41.682,-0.006,-0.007,0.989,-39.6,5.6,5.9,0.2,-0.4,0.3,57.89481860,11.95062840,0.11
2026-06-21 22:00:41.726,-0.010,-0.007,0.989,-39.6,5.7,5.5,0.2,-0.1,0.1,57.89481860,11.95062840,0.11
2026-06-21 22:00:41.756,-0.008,-0.006,0.989,-39.6,5.3,5.6,0.3,-0.2,0.1,57.89481870,11.95062830,0.11
2026-06-21 22:00:41.802,-0.010,-0.007,0.989,-39.5,5.0,5.4,0.2,-0.1,0.2,57.89481870,11.95062840,0.11
2026-06-21 22:00:41.834,-0.008,-0.008,0.989,-39.7,5.2,5.3,0.1,-0.2,0.3,57.89481870,11.95062820,0.11
2026-06-21 22:00:41.876,-0.008,-0.008,0.989,-39.7,5.4,5.5,0.1,-0.2,0.2,57.89481870,11.95062820,0.11
2026-06-21 22:00:41.921,-0.008,-0.008,0.989,-39.6,5.2,5.7,0.1,-0.2,0.2,57.89481880,11.95062830,0.11
2026-06-21 22:00:41.982,-0.009,-0.007,0.988,-39.6,5.6,5.7,0.2,-0.2,0.1,57.89481890,11.95062820,0.11
2026-06-21 22:00:41.997,-0.009,-0.006,0.988,-39.6,5.5,5.7,0.3,-0.2,0.1,57.89481890,11.95062830,0.11
2026-06-21 22:00:42.041,-0.007,-0.007,0.988,-39.6,5.3,5.6,0.2,-0.3,0.1,57.89481900,11.95062830,0.11
2026-06-21 22:00:42.086,-0.007,-0.007,0.989,-39.7,5.7,5.3,0.2,-0.3,0.1,57.89481900,11.95062840,0.11
2026-06-21 22:00:42.116,-0.008,-0.007,0.989,-39.7,5.5,5.4,0.2,-0.2,0.1,57.89481910,11.95062830,0.11
2026-06-21 22:00:42.161,-0.008,-0.008,0.989,-39.7,5.6,5.4,0.1,-0.2,0.2,57.89481910,11.95062820,0.11
2026-06-21 22:00:42.206,-0.008,-0.008,0.989,-39.7,5.7,5.4,0.1,-0.2,0.1,57.89481910,11.95062820,0.11
2026-06-21 22:00:42.236,-0.007,-0.007,0.988,-39.7,5.6,5.4,0.2,-0.3,0.0,57.89481920,11.95062820,0.11
2026-06-21 22:00:42.281,-0.007,-0.007,0.988,-39.6,5.6,5.5,0.2,-0.3,0.0,57.89481920,11.95062820,0.11
2026-06-21 22:00:42.311,-0.007,-0.007,0.988,-39.6,5.6,5.4,0.2,-0.3,0.1,57.89481930,11.95062810,0.11
2026-06-21 22:00:42.356,-0.008,-0.007,0.988,-39.5,5.6,5.5,0.2,-0.2,0.1,57.89481930,11.95062810,0.11
2026-06-21 22:00:42.402,-0.007,-0.007,0.988,-39.5,5.6,5.5,0.2,-0.3,0.1,57.89481940,11.95062810,0.11
2026-06-21 22:00:42.431,-0.008,-0.007,0.988,-39.5,5.7,5.5,0.2,-0.2,0.0,57.89481940,11.95062810,0.11
2026-06-21 22:00:42.476,-0.007,-0.007,0.989,-39.6,5.6,5.5,0.2,-0.3,0.2,57.89481950,11.95062820,0.11
2026-06-21 22:00:42.521,-0.008,-0.007,0.989,-39.7,5.6,5.5,0.2,-0.2,0.0,57.89481950,11.95062810,0.11
2026-06-21 22:00:42.567,-0.008,-0.007,0.989,-39.6,5.5,5.4,0.2,-0.2,0.1,57.89481950,11.95062810,0.11
2026-06-21 22:00:42.611,-0.008,-0.007,0.989,-39.5,5.4,5.3,0.2,-0.2,0.1,57.89481960,11.95062800,0.11
2026-06-21 22:00:42.641,-0.007,-0.008,0.988,-39.4,5.5,5.4,0.1,-0.3,0.1,57.89481960,11.95062810,0.11
2026-06-21 22:00:42.686,-0.008,-0.008,0.988,-39.5,5.5,5.4,0.1,-0.2,0.1,57.89481960,11.95062810,0.11
2026-06-21 22:00:42.717,-0.007,-0.007,0.988,-39.6,5.5,5.5,0.2,-0.3,0.1,57.89481970,11.95062810,0.11
2026-06-21 22:00:42.762,-0.007,-0.007,0.989,-39.7,5.6,5.6,0.2,-0.3,0.1,57.89481980,11.95062820,0.11
2026-06-21 22:00:42.792,-0.008,-0.007,0.989,-39.7,5.5,5.6,0.2,-0.2,0.1,57.89481980,11.95062810,0.11
2026-06-21 22:00:42.837,-0.006,-0.007,0.989,-39.6,5.6,5.6,0.2,-0.4,0.2,57.89481990,11.95062830,0.11
2026-06-21 22:00:42.883,-0.008,-0.007,0.988,-39.7,5.8,5.6,0.2,-0.2,0.1,57.89481990,11.95062810,0.11
2026-06-21 22:00:42.928,-0.009,-0.007,0.988,-39.7,5.5,5.5,0.2,-0.2,0.2,57.89482000,11.95062810,0.11
2026-06-21 22:00:42.972,-0.009,-0.007,0.988,-39.6,5.6,5.4,0.2,-0.2,0.2,57.89481990,11.95062800,0.11
2026-06-21 22:00:43.046,-0.008,-0.008,0.988,-39.5,5.5,5.5,0.1,-0.2,0.3,57.89482000,11.95062820,0.11
2026-06-21 22:00:43.076,-0.008,-0.007,0.988,-39.4,5.5,5.4,0.2,-0.2,0.3,57.89482010,11.95062830,0.11
2026-06-21 22:00:43.121,-0.008,-0.007,0.988,-39.5,5.6,5.5,0.2,-0.2,0.1,57.89482010,11.95062820,0.11
2026-06-21 22:00:43.167,-0.008,-0.008,0.988,-39.6,5.6,5.5,0.1,-0.2,0.2,57.89482010,11.95062810,0.11
2026-06-21 22:00:43.197,-0.007,-0.007,0.988,-39.6,5.6,5.4,0.2,-0.3,0.1,57.89482010,11.95062820,0.11
2026-06-21 22:00:43.242,-0.008,-0.007,0.988,-39.5,5.7,5.4,0.2,-0.2,0.1,57.89482020,11.95062820,0.11
2026-06-21 22:00:43.274,-0.007,-0.007,0.989,-39.5,5.6,5.4,0.2,-0.3,0.1,57.89482020,11.95062830,0.11
2026-06-21 22:00:43.318,-0.007,-0.008,0.988,-39.5,5.7,5.3,0.1,-0.3,0.1,57.89482020,11.95062830,0.11
2026-06-21 22:00:43.362,-0.008,-0.007,0.988,-39.6,5.6,5.4,0.2,-0.2,0.0,57.89482030,11.95062830,0.11
2026-06-21 22:00:43.407,-0.007,-0.008,0.988,-39.6,5.6,5.4,0.1,-0.3,0.1,57.89482030,11.95062830,0.11
2026-06-21 22:00:43.436,-0.008,-0.007,0.989,-39.6,5.7,5.3,0.2,-0.2,0.1,57.89482030,11.95062830,0.11
2026-06-21 22:00:43.481,-0.007,-0.007,0.989,-39.6,5.7,5.4,0.2,-0.3,0.1,57.89482040,11.95062820,0.11
2026-06-21 22:00:43.526,-0.008,-0.007,0.989,-39.5,5.6,5.4,0.2,-0.2,0.1,57.89482040,11.95062820,0.11
2026-06-21 22:00:43.556,-0.007,-0.007,0.989,-39.6,5.6,5.5,0.2,-0.3,0.1,57.89482040,11.95062820,0.11
2026-06-21 22:00:43.601,-0.008,-0.007,0.989,-39.6,5.6,5.6,0.2,-0.2,0.0,57.89482050,11.95062820,0.11
2026-06-21 22:00:43.647,-0.007,-0.008,0.989,-39.6,5.6,5.6,0.1,-0.3,0.0,57.89482050,11.95062820,0.11
2026-06-21 22:00:43.676,-0.007,-0.008,0.989,-39.5,5.6,5.6,0.1,-0.3,0.1,57.89482050,11.95062830,0.11
2026-06-21 22:00:43.721,-0.008,-0.007,0.989,-39.5,5.7,5.5,0.2,-0.2,0.1,57.89482060,11.95062830,0.11
2026-06-21 22:00:43.766,-0.007,-0.007,0.989,-39.5,5.6,5.5,0.2,-0.3,0.1,57.89482070,11.95062830,0.11
2026-06-21 22:00:43.797,-0.008,-0.007,0.988,-39.5,5.7,5.5,0.2,-0.2,0.1,57.89482070,11.95062840,0.11
2026-06-21 22:00:43.842,-0.008,-0.007,0.988,-39.5,5.6,5.4,0.2,-0.2,0.1,57.89482080,11.95062820,0.11
2026-06-21 22:00:43.889,-0.007,-0.007,0.988,-39.6,5.7,5.4,0.2,-0.3,0.1,57.89482080,11.95062820,0.11
2026-06-21 22:00:43.917,-0.008,-0.007,0.989,-39.6,5.6,5.5,0.2,-0.2,0.1,57.89482080,11.95062820,0.11
2026-06-21 22:00:43.977,-0.007,-0.007,0.989,-39.6,5.7,5.6,0.2,-0.3,0.2,57.89482080,11.95062810,0.11
2026-06-21 22:00:44.006,-0.007,-0.007,0.989,-39.5,5.6,5.6,0.2,-0.3,0.1,57.89482090,11.95062820,0.11
2026-06-21 22:00:44.036,-0.008,-0.007,0.989,-39.4,5.6,5.6,0.2,-0.2,0.2,57.89482090,11.95062830,0.11
2026-06-21 22:00:44.081,-0.008,-0.007,0.989,-39.6,5.5,5.5,0.2,-0.2,0.1,57.89482090,11.95062820,0.11
2026-06-21 22:00:44.126,-0.008,-0.007,0.988,-39.6,5.5,5.5,0.2,-0.2,0.2,57.89482100,11.95062820,0.11
2026-06-21 22:00:44.157,-0.007,-0.007,0.988,-39.6,5.5,5.5,0.2,-0.3,0.1,57.89482100,11.95062820,0.11
2026-06-21 22:00:44.203,-0.008,-0.007,0.988,-39.6,5.6,5.5,0.2,-0.2,0.2,57.89482110,11.95062810,0.11
2026-06-21 22:00:44.247,-0.007,-0.007,0.988,-39.5,5.6,5.4,0.2,-0.3,0.1,57.89482120,11.95062820,0.11
2026-06-21 22:00:44.278,-0.007,-0.007,0.988,-39.4,5.6,5.5,0.2,-0.3,0.1,57.89482120,11.95062820,0.11
2026-06-21 22:00:44.321,-0.008,-0.007,0.988,-39.4,5.6,5.4,0.2,-0.2,0.2,57.89482120,11.95062830,0.11
2026-06-21 22:00:44.367,-0.008,-0.007,0.988,-39.5,5.7,5.4,0.2,-0.2,0.1,57.89482120,11.95062820,0.11
2026-06-21 22:00:44.396,-0.008,-0.007,0.988,-39.5,5.6,5.5,0.2,-0.2,0.1,57.89482130,11.95062820,0.11
2026-06-21 22:00:44.442,-0.008,-0.007,0.988,-39.6,5.5,5.4,0.2,-0.2,0.2,57.89482130,11.95062810,0.11
2026-06-21 22:00:44.502,-0.008,-0.007,0.988,-39.6,5.6,5.5,0.2,-0.2,0.3,57.89482140,11.95062800,0.11
2026-06-21 22:00:44.517,-0.007,-0.007,0.989,-39.5,5.6,5.5,0.2,-0.3,0.1,57.89482140,11.95062820,0.11
2026-06-21 22:00:44.561,-0.008,-0.007,0.988,-39.5,5.6,5.5,0.2,-0.2,0.2,57.89482150,11.95062820,0.11
2026-06-21 22:00:44.606,-0.008,-0.007,0.989,-39.6,5.6,5.6,0.2,-0.2,0.0,57.89482150,11.95062820,0.11
2026-06-21 22:00:44.636,-0.007,-0.007,0.989,-39.6,5.6,5.5,0.2,-0.3,0.1,57.89482150,11.95062820,0.11
2026-06-21 22:00:44.681,-0.008,-0.007,0.989,-39.6,5.7,5.5,0.2,-0.2,0.1,57.89482150,11.95062820,0.11
2026-06-21 22:00:44.726,-0.007,-0.007,0.989,-39.6,5.7,5.5,0.2,-0.3,0.1,57.89482150,11.95062820,0.11
2026-06-21 22:00:44.756,-0.008,-0.007,0.989,-39.5,5.8,5.5,0.2,-0.2,0.1,57.89482150,11.95062830,0.11
2026-06-21 22:00:44.802,-0.007,-0.007,0.988,-39.6,5.7,5.5,0.2,-0.3,0.1,57.89482160,11.95062830,0.11
2026-06-21 22:00:44.847,-0.008,-0.007,0.989,-39.6,5.7,5.5,0.2,-0.2,0.2,57.89482150,11.95062820,0.11
2026-06-21 22:00:44.876,-0.007,-0.008,0.989,-39.6,5.6,5.5,0.1,-0.3,0.0,57.89482160,11.95062820,0.11
2026-06-21 22:00:44.921,-0.008,-0.007,0.989,-39.7,5.5,5.6,0.2,-0.2,0.2,57.89482170,11.95062810,0.11
2026-06-21 22:00:44.981,-0.008,-0.007,0.989,-39.7,5.4,5.6,0.2,-0.2,0.1,57.89482170,11.95062820,0.11
2026-06-21 22:00:45.042,-0.008,-0.007,0.989,-39.5,5.5,5.6,0.2,-0.2,0.2,57.89482170,11.95062830,0.11
2026-06-21 22:00:45.086,-0.008,-0.007,0.989,-39.5,5.6,5.6,0.2,-0.2,0.2,57.89482180,11.95062820,0.11
2026-06-21 22:00:45.132,-0.008,-0.007,0.988,-39.6,5.7,5.6,0.2,-0.2,0.2,57.89482180,11.95062810,0.11
2026-06-21 22:00:45.162,-0.008,-0.007,0.988,-39.6,5.6,5.5,0.2,-0.2,0.1,57.89482190,11.95062810,0.11
2026-06-21 22:00:45.221,-0.008,-0.007,0.988,-39.8,5.6,5.5,0.2,-0.2,0.1,57.89482180,11.95062820,0.11
2026-06-21 22:00:45.238,-0.008,-0.007,0.988,-39.7,5.6,5.5,0.2,-0.2,0.2,57.89482180,11.95062830,0.11
2026-06-21 22:00:45.282,-0.008,-0.007,0.988,-39.7,5.5,5.5,0.2,-0.2,0.2,57.89482180,11.95062840,0.11
2026-06-21 22:00:45.312,-0.008,-0.007,0.988,-39.6,5.5,5.5,0.2,-0.2,0.0,57.89482180,11.95062830,0.11
2026-06-21 22:00:45.357,-0.008,-0.007,0.988,-39.5,5.6,5.5,0.2,-0.2,0.1,57.89482190,11.95062830,0.11
2026-06-21 22:00:45.402,-0.008,-0.007,0.988,-39.6,5.6,5.6,0.2,-0.2,0.1,57.89482190,11.95062830,0.11
2026-06-21 22:00:45.448,-0.008,-0.007,0.989,-39.5,5.7,5.6,0.2,-0.2,0.1,57.89482190,11.95062830,0.11
2026-06-21 22:00:45.477,-0.008,-0.007,0.989,-39.5,5.7,5.6,0.2,-0.2,0.1,57.89482190,11.95062830,0.11
2026-06-21 22:00:45.521,-0.008,-0.007,0.988,-39.5,5.6,5.5,0.2,-0.2,0.2,57.89482190,11.95062820,0.11
2026-06-21 22:00:45.566,-0.008,-0.007,0.989,-39.5,5.6,5.5,0.2,-0.2,0.1,57.89482190,11.95062830,0.11
2026-06-21 22:00:45.596,-0.008,-0.007,0.988,-39.6,5.5,5.5,0.2,-0.2,0.0,57.89482190,11.95062830,0.11
2026-06-21 22:00:45.641,-0.008,-0.007,0.989,-39.5,5.7,5.4,0.2,-0.2,0.0,57.89482190,11.95062830,0.11
2026-06-21 22:00:45.686,-0.008,-0.007,0.989,-39.6,5.7,5.5,0.2,-0.2,0.0,57.89482200,11.95062830,0.11
2026-06-21 22:00:45.716,-0.008,-0.007,0.989,-39.5,5.7,5.6,0.2,-0.2,0.2,57.89482200,11.95062850,0.11
2026-06-21 22:00:45.762,-0.008,-0.007,0.989,-39.5,5.7,5.5,0.2,-0.2,0.1,57.89482200,11.95062840,0.11
2026-06-21 22:00:45.794,-0.008,-0.007,0.988,-39.6,5.6,5.6,0.2,-0.2,0.2,57.89482210,11.95062840,0.11
2026-06-21 22:00:45.837,-0.008,-0.007,0.989,-39.6,5.6,5.5,0.2,-0.2,0.1,57.89482210,11.95062850,0.11
2026-06-21 22:00:45.882,-0.008,-0.007,0.988,-39.7,5.6,5.5,0.2,-0.2,0.1,57.89482210,11.95062850,0.11
2026-06-21 22:00:45.927,-0.008,-0.007,0.988,-39.7,5.6,5.5,0.2,-0.2,0.2,57.89482210,11.95062840,0.11
2026-06-21 22:00:45.973,-0.008,-0.007,0.988,-39.7,5.6,5.5,0.2,-0.2,0.0,57.89482210,11.95062850,0.11
2026-06-21 22:00:46.048,-0.008,-0.007,0.988,-39.7,5.6,5.5,0.2,-0.2,0.2,57.89482210,11.95062850,0.11
2026-06-21 22:00:46.077,-0.008,-0.007,0.989,-39.6,5.6,5.4,0.2,-0.2,0.1,57.89482210,11.95062860,0.11
2026-06-21 22:00:46.123,-0.008,-0.007,0.989,-39.6,5.6,5.4,0.2,-0.2,0.1,57.89482210,11.95062850,0.11
2026-06-21 22:00:46.167,-0.007,-0.007,0.989,-39.6,5.5,5.4,0.2,-0.3,0.1,57.89482220,11.95062860,0.11
2026-06-21 22:00:46.197,-0.008,-0.007,0.989,-39.6,5.6,5.5,0.2,-0.2,0.1,57.89482220,11.95062850,0.11
2026-06-21 22:00:46.242,-0.008,-0.007,0.989,-39.6,5.6,5.6,0.2,-0.2,0.0,57.89482220,11.95062860,0.11
2026-06-21 22:00:46.274,-0.008,-0.007,0.989,-39.6,5.6,5.6,0.2,-0.2,0.1,57.89482220,11.95062870,0.11
2026-06-21 22:00:46.318,-0.008,-0.007,0.989,-39.7,5.6,5.6,0.2,-0.2,0.2,57.89482230,11.95062870,0.11
2026-06-21 22:00:46.362,-0.008,-0.007,0.989,-39.7,5.7,5.6,0.2,-0.2,0.2,57.89482220,11.95062880,0.11
2026-06-21 22:00:46.407,-0.008,-0.007,0.988,-39.7,5.7,5.6,0.2,-0.2,0.1,57.89482230,11.95062880,0.11
2026-06-21 22:00:46.437,-0.008,-0.007,0.988,-39.6,5.7,5.6,0.2,-0.2,0.1,57.89482230,11.95062880,0.11
2026-06-21 22:00:46.481,-0.008,-0.007,0.988,-39.6,5.7,5.5,0.2,-0.2,0.2,57.89482230,11.95062870,0.11
2026-06-21 22:00:46.527,-0.008,-0.007,0.988,-39.7,5.7,5.5,0.2,-0.2,0.1,57.89482230,11.95062870,0.11
2026-06-21 22:00:46.557,-0.008,-0.007,0.988,-39.7,5.7,5.6,0.2,-0.2,0.1,57.89482230,11.95062890,0.11
2026-06-21 22:00:46.601,-0.008,-0.007,0.988,-39.7,5.7,5.6,0.2,-0.2,0.1,57.89482230,11.95062890,0.11
2026-06-21 22:00:46.646,-0.008,-0.007,0.988,-39.7,5.7,5.6,0.2,-0.2,0.1,57.89482230,11.95062900,0.11
2026-06-21 22:00:46.677,-0.008,-0.007,0.988,-39.6,5.6,5.6,0.2,-0.2,0.0,57.89482230,11.95062900,0.11
2026-06-21 22:00:46.721,-0.008,-0.007,0.989,-39.6,5.6,5.6,0.2,-0.2,0.2,57.89482230,11.95062890,0.11
2026-06-21 22:00:46.767,-0.008,-0.007,0.989,-39.5,5.6,5.6,0.2,-0.2,0.3,57.89482240,11.95062900,0.11
2026-06-21 22:00:46.796,-0.008,-0.007,0.989,-39.5,5.6,5.5,0.2,-0.2,0.1,57.89482240,11.95062900,0.11
2026-06-21 22:00:46.842,-0.008,-0.007,0.988,-39.5,5.6,5.6,0.2,-0.2,0.1,57.89482240,11.95062900,0.11
2026-06-21 22:00:46.886,-0.008,-0.007,0.988,-39.5,5.7,5.5,0.2,-0.2,0.2,57.89482240,11.95062910,0.11
2026-06-21 22:00:46.916,-0.008,-0.007,0.988,-39.6,5.6,5.4,0.2,-0.2,0.1,57.89482240,11.95062920,0.11
2026-06-21 22:00:46.978,-0.008,-0.007,0.989,-39.6,5.6,5.4,0.2,-0.2,0.2,57.89482240,11.95062920,0.11
2026-06-21 22:00:47.036,-0.008,-0.007,0.989,-39.7,5.5,5.4,0.2,-0.2,0.2,57.89482250,11.95062920,0.11
2026-06-21 22:00:47.081,-0.008,-0.007,0.989,-39.6,5.6,5.3,0.2,-0.2,0.2,57.89482250,11.95062940,0.11
2026-06-21 22:00:47.126,-0.007,-0.007,0.989,-39.6,5.6,5.3,0.2,-0.3,0.1,57.89482240,11.95062950,0.11
2026-06-21 22:00:47.156,-0.007,-0.007,0.989,-39.6,5.8,5.3,0.2,-0.3,0.2,57.89482240,11.95062940,0.11
2026-06-21 22:00:47.202,-0.008,-0.007,0.989,-39.7,5.7,5.4,0.2,-0.2,0.2,57.89482230,11.95062940,0.11
2026-06-21 22:00:47.231,-0.008,-0.007,0.989,-39.8,5.7,5.5,0.2,-0.2,0.1,57.89482240,11.95062950,0.11
2026-06-21 22:00:47.277,-0.008,-0.007,0.989,-39.7,5.8,5.5,0.2,-0.2,0.1,57.89482240,11.95062960,0.11
2026-06-21 22:00:47.322,-0.007,-0.007,0.989,-39.7,5.6,5.5,0.2,-0.3,0.1,57.89482230,11.95062970,0.11
2026-06-21 22:00:47.366,-0.008,-0.007,0.989,-39.7,5.7,5.5,0.2,-0.2,0.1,57.89482240,11.95062970,0.11
2026-06-21 22:00:47.411,-0.007,-0.007,0.989,-39.7,5.7,5.4,0.2,-0.3,0.1,57.89482240,11.95062970,0.11
2026-06-21 22:00:47.441,-0.007,-0.007,0.988,-39.7,5.7,5.5,0.2,-0.3,0.0,57.89482240,11.95062980,0.11
2026-06-21 22:00:47.486,-0.008,-0.007,0.988,-39.7,5.7,5.5,0.2,-0.2,0.1,57.89482250,11.95062980,0.11
2026-06-21 22:00:47.517,-0.008,-0.007,0.989,-39.7,5.6,5.4,0.2,-0.2,0.0,57.89482250,11.95062980,0.11
2026-06-21 22:00:47.561,-0.008,-0.007,0.989,-39.6,5.7,5.4,0.2,-0.2,0.1,57.89482250,11.95062990,0.11
2026-06-21 22:00:47.607,-0.007,-0.007,0.989,-39.5,5.7,5.4,0.2,-0.3,0.2,57.89482240,11.95063000,0.11
2026-06-21 22:00:47.636,-0.007,-0.007,0.989,-39.6,5.7,5.4,0.2,-0.3,0.2,57.89482240,11.95063010,0.11
2026-06-21 22:00:47.696,-0.008,-0.007,0.989,-39.7,5.6,5.5,0.2,-0.2,0.1,57.89482240,11.95063010,0.11
2026-06-21 22:00:47.727,-0.008,-0.007,0.989,-39.6,5.6,5.5,0.2,-0.2,0.1,57.89482240,11.95063020,0.11
2026-06-21 22:00:47.756,-0.008,-0.007,0.989,-39.7,5.5,5.5,0.2,-0.2,0.3,57.89482240,11.95063010,0.11
2026-06-21 22:00:47.802,-0.008,-0.007,0.989,-39.6,5.6,5.6,0.2,-0.2,0.1,57.89482240,11.95063020,0.11
2026-06-21 22:00:47.847,-0.007,-0.007,0.989,-39.5,5.6,5.6,0.2,-0.3,0.2,57.89482230,11.95063040,0.11
2026-06-21 22:00:47.876,-0.007,-0.007,0.989,-39.6,5.8,5.6,0.2,-0.3,0.1,57.89482230,11.95063050,0.11
2026-06-21 22:00:47.921,-0.007,-0.007,0.988,-39.5,5.7,5.5,0.2,-0.3,0.1,57.89482230,11.95063060,0.11
2026-06-21 22:00:47.981,-0.008,-0.007,0.988,-39.6,5.6,5.5,0.2,-0.2,0.1,57.89482230,11.95063050,0.11
2026-06-21 22:00:47.997,-0.008,-0.007,0.989,-39.6,5.6,5.4,0.2,-0.2,0.2,57.89482230,11.95063050,0.11
2026-06-21 22:00:48.057,-0.008,-0.007,0.989,-39.7,5.6,5.5,0.2,-0.2,0.0,57.89482230,11.95063070,0.11
2026-06-21 22:00:48.086,-0.008,-0.008,0.989,-39.8,5.6,5.4,0.1,-0.2,0.1,57.89482220,11.95063080,0.11
2026-06-21 22:00:48.116,-0.008,-0.007,0.989,-39.8,5.6,5.4,0.2,-0.2,0.0,57.89482220,11.95063080,0.11
2026-06-21 22:00:48.161,-0.008,-0.007,0.989,-39.7,5.6,5.5,0.2,-0.2,0.1,57.89482220,11.95063090,0.11
2026-06-21 22:00:48.191,-0.007,-0.007,0.989,-39.7,5.6,5.5,0.2,-0.3,0.1,57.89482220,11.95063100,0.11
2026-06-21 22:00:48.237,-0.007,-0.007,0.989,-39.7,5.6,5.5,0.2,-0.3,0.1,57.89482220,11.95063100,0.11
2026-06-21 22:00:48.282,-0.007,-0.007,0.989,-39.7,5.6,5.5,0.2,-0.3,0.2,57.89482210,11.95063100,0.11
2026-06-21 22:00:48.327,-0.007,-0.007,0.989,-39.7,5.6,5.5,0.2,-0.3,0.1,57.89482220,11.95063110,0.11
2026-06-21 22:00:48.357,-0.007,-0.007,0.989,-39.6,5.6,5.5,0.2,-0.3,0.1,57.89482210,11.95063120,0.11
2026-06-21 22:00:48.402,-0.008,-0.007,0.989,-39.6,5.6,5.5,0.2,-0.2,0.0,57.89482210,11.95063130,0.11
2026-06-21 22:00:48.448,-0.007,-0.007,0.989,-39.6,5.7,5.5,0.2,-0.3,0.2,57.89482200,11.95063140,0.11
